instructions_2afc_loop.thisRepN,instructions_2afc_loop.thisTrialN,instructions_2afc_loop.thisN,instructions_2afc_loop.thisIndex,instructions_2afc_loop.ran,instructions_text,continue_text,participant,study_id,session,Tu variedad del español*,¿Hablas con fluidez otra lengua (sí/no)?*,date,expName,psychopyVersion,OS,frameRate,key_resp_2afc_practice.keys,key_resp_2afc_practice.corr,key_resp_2afc_practice.rt,trials_2afc_practice_loop.thisRepN,trials_2afc_practice_loop.thisTrialN,trials_2afc_practice_loop.thisN,trials_2afc_practice_loop.thisIndex,trials_2afc_practice_loop.ran,path,correct_response,the_col,key_resp_2afc_trial.keys,key_resp_2afc_trial.corr,key_resp_2afc_trial.rt,trials_2afc_loop.thisRepN,trials_2afc_loop.thisTrialN,trials_2afc_loop.thisN,trials_2afc_loop.thisIndex,trials_2afc_loop.ran,item_num,andalusian,argentine,castilian,chilean,cuban,mexican,peruvian,puertorican
0,0,0,0,1,"En la siguiente tarea vas a escuchar una serie de frases cortas. 

  Vas a decidir si suenan como preguntas o no usando el teclado.",(presiona la barra espaciadora para continuar),5e902a581baf783237598a3c,602ab2f3ccc37d12d58ba79b,602b202d24ce4c233dfd0f8b,Mexicano,No,2021-02-15_19h32.45.710,empathy_intonation_perc_sp,2020.2.10,Win32,60,,,,,,,,,,,,,,,,,,,,,,,,,,,,
0,1,1,1,1,"Si crees que el enunciado es una pregunta, teclea '1' (Sí) y si crees que 
  no es una pregunta teclea '0' (no).

  Vamos a practicar...",(presiona la barra espaciadora para continuar),5e902a581baf783237598a3c,602ab2f3ccc37d12d58ba79b,602b202d24ce4c233dfd0f8b,Mexicano,No,2021-02-15_19h32.45.710,empathy_intonation_perc_sp,2020.2.10,Win32,60,,,,,,,,,,,,,,,,,,,,,,,,,,,,
,,,,,,,5e902a581baf783237598a3c,602ab2f3ccc37d12d58ba79b,602b202d24ce4c233dfd0f8b,Mexicano,No,2021-02-15_19h32.45.710,empathy_intonation_perc_sp,2020.2.10,Win32,60,1,1,5.179845,0,0,0,3,1,./stim/wavs/mexican_question_filler_Felipe-no-tiene-contrasena.wav,1,,,,,,,,,,,,,,,,,,
,,,,,,,5e902a581baf783237598a3c,602ab2f3ccc37d12d58ba79b,602b202d24ce4c233dfd0f8b,Mexicano,No,2021-02-15_19h32.45.710,empathy_intonation_perc_sp,2020.2.10,Win32,60,0,1,4.30057,0,1,1,7,1,./stim/wavs/puertorican_statement_filler_La-nina-pinta-con-su-amiga.wav,0,,,,,,,,,,,,,,,,,,
,,,,,,,5e902a581baf783237598a3c,602ab2f3ccc37d12d58ba79b,602b202d24ce4c233dfd0f8b,Mexicano,No,2021-02-15_19h32.45.710,empathy_intonation_perc_sp,2020.2.10,Win32,60,1,1,2.19199,0,2,2,0,1,./stim/wavs/castilian_question_filler_Mi-esposo-conoce-al-chico.wav,1,,,,,,,,,,,,,,,,,,
,,,,,,,5e902a581baf783237598a3c,602ab2f3ccc37d12d58ba79b,602b202d24ce4c233dfd0f8b,Mexicano,No,2021-02-15_19h32.45.710,empathy_intonation_perc_sp,2020.2.10,Win32,60,1,1,1.691225,0,3,3,2,1,./stim/wavs/chilean_question_filler_Mi-padre-cantaba-bien.wav,1,,,,,,,,,,,,,,,,,,
,,,,,,,5e902a581baf783237598a3c,602ab2f3ccc37d12d58ba79b,602b202d24ce4c233dfd0f8b,Mexicano,No,2021-02-15_19h32.45.710,empathy_intonation_perc_sp,2020.2.10,Win32,60,1,1,1.445005,0,4,4,1,1,./stim/wavs/argentine_question_filler_Mi-vecino-habla-mucho.wav,1,,,,,,,,,,,,,,,,,,
,,,,,,,5e902a581baf783237598a3c,602ab2f3ccc37d12d58ba79b,602b202d24ce4c233dfd0f8b,Mexicano,No,2021-02-15_19h32.45.710,empathy_intonation_perc_sp,2020.2.10,Win32,60,0,1,2.172455,0,5,5,6,1,./stim/wavs/peruvian_statement_filler_El-nino-habla-con-su-madre.wav,0,,,,,,,,,,,,,,,,,,
,,,,,,,5e902a581baf783237598a3c,602ab2f3ccc37d12d58ba79b,602b202d24ce4c233dfd0f8b,Mexicano,No,2021-02-15_19h32.45.710,empathy_intonation_perc_sp,2020.2.10,Win32,60,0,1,1.627785,0,6,6,4,1,./stim/wavs/cuban_statement_filler_Cocinabas-por-la-noche.wav,0,,,,,,,,,,,,,,,,,,
,,,,,,,5e902a581baf783237598a3c,602ab2f3ccc37d12d58ba79b,602b202d24ce4c233dfd0f8b,Mexicano,No,2021-02-15_19h32.45.710,empathy_intonation_perc_sp,2020.2.10,Win32,60,0,1,2.108825,0,7,7,5,1,./stim/wavs/andalusian_statement_filler_Alberto-nunca-se-afeita.wav,0,,,,,,,,,,,,,,,,,,
,,,,,,,5e902a581baf783237598a3c,602ab2f3ccc37d12d58ba79b,602b202d24ce4c233dfd0f8b,Mexicano,No,2021-02-15_19h32.45.710,empathy_intonation_perc_sp,2020.2.10,Win32,60,,,,,,,,,,0,cuban,0,1,1.543915,0,0,0,41,1,42,./stim/wavs/andalusian_mismatch_declarative-narrow-focus_El-hombre-mira-la-luna.wav,./stim/wavs/argentine_mismatch_declarative-narrow-focus_El-hombre-mira-la-luna.wav,./stim/wavs/castilian_mismatch_declarative-narrow-focus_El-hombre-mira-la-luna.wav,./stim/wavs/chilean_mismatch_declarative-narrow-focus_El-hombre-mira-la-luna.wav,./stim/wavs/cuban_mismatch_declarative-narrow-focus_El-hombre-mira-la-luna.wav,./stim/wavs/mexican_mismatch_declarative-narrow-focus_El-hombre-mira-la-luna.wav,./stim/wavs/peruvian_mismatch_declarative-narrow-focus_El-hombre-mira-la-luna.wav,./stim/wavs/puertorican_mismatch_declarative-narrow-focus_El-hombre-mira-la-luna.wav
,,,,,,,5e902a581baf783237598a3c,602ab2f3ccc37d12d58ba79b,602b202d24ce4c233dfd0f8b,Mexicano,No,2021-02-15_19h32.45.710,empathy_intonation_perc_sp,2020.2.10,Win32,60,,,,,,,,,,0,chilean,0,1,1.58099,0,1,1,8,1,9,./stim/wavs/andalusian_match_declarative-narrow-focus_Ana-lleva-el-abrigo.wav,./stim/wavs/argentine_match_declarative-narrow-focus_Ana-lleva-el-abrigo.wav,./stim/wavs/castilian_match_declarative-narrow-focus_Ana-lleva-el-abrigo.wav,./stim/wavs/chilean_match_declarative-narrow-focus_Ana-lleva-el-abrigo.wav,./stim/wavs/cuban_match_declarative-narrow-focus_Ana-lleva-el-abrigo.wav,./stim/wavs/mexican_match_declarative-narrow-focus_Ana-lleva-el-abrigo.wav,./stim/wavs/peruvian_match_declarative-narrow-focus_Ana-lleva-el-abrigo.wav,./stim/wavs/puertorican_match_declarative-narrow-focus_Ana-lleva-el-abrigo.wav
,,,,,,,5e902a581baf783237598a3c,602ab2f3ccc37d12d58ba79b,602b202d24ce4c233dfd0f8b,Mexicano,No,2021-02-15_19h32.45.710,empathy_intonation_perc_sp,2020.2.10,Win32,60,,,,,,,,,,1,cuban,0,0,1.76486,0,2,2,59,1,60,./stim/wavs/andalusian_mismatch_interrogative-total-yn_La-maestra-vive-en-Paris.wav,./stim/wavs/argentine_mismatch_interrogative-total-yn_La-maestra-vive-en-Paris.wav,./stim/wavs/castilian_mismatch_interrogative-total-yn_La-maestra-vive-en-Paris.wav,./stim/wavs/chilean_mismatch_interrogative-total-yn_La-maestra-vive-en-Paris.wav,./stim/wavs/cuban_mismatch_interrogative-total-yn_La-maestra-vive-en-Paris.wav,./stim/wavs/mexican_mismatch_interrogative-total-yn_La-maestra-vive-en-Paris.wav,./stim/wavs/peruvian_mismatch_interrogative-total-yn_La-maestra-vive-en-Paris.wav,./stim/wavs/puertorican_mismatch_interrogative-total-yn_La-maestra-vive-en-Paris.wav
,,,,,,,5e902a581baf783237598a3c,602ab2f3ccc37d12d58ba79b,602b202d24ce4c233dfd0f8b,Mexicano,No,2021-02-15_19h32.45.710,empathy_intonation_perc_sp,2020.2.10,Win32,60,,,,,,,,,,1,argentine,1,1,1.382245,0,3,3,50,1,51,./stim/wavs/andalusian_mismatch_interrogative-partial-wh_Cuando-miraba-la-luna.wav,./stim/wavs/argentine_mismatch_interrogative-partial-wh_Cuando-miraba-la-luna.wav,./stim/wavs/castilian_mismatch_interrogative-partial-wh_Cuando-miraba-la-luna.wav,./stim/wavs/chilean_mismatch_interrogative-partial-wh_Cuando-miraba-la-luna.wav,./stim/wavs/cuban_mismatch_interrogative-partial-wh_Cuando-miraba-la-luna.wav,./stim/wavs/mexican_mismatch_interrogative-partial-wh_Cuando-miraba-la-luna.wav,./stim/wavs/peruvian_mismatch_interrogative-partial-wh_Cuando-miraba-la-luna.wav,./stim/wavs/puertorican_mismatch_interrogative-partial-wh_Cuando-miraba-la-luna.wav
,,,,,,,5e902a581baf783237598a3c,602ab2f3ccc37d12d58ba79b,602b202d24ce4c233dfd0f8b,Mexicano,No,2021-02-15_19h32.45.710,empathy_intonation_perc_sp,2020.2.10,Win32,60,,,,,,,,,,1,mexican,1,1,1.909975,0,4,4,27,1,28,./stim/wavs/andalusian_match_interrogative-total-yn_Emilio-ama-la-marcha.wav,./stim/wavs/argentine_match_interrogative-total-yn_Emilio-ama-la-marcha.wav,./stim/wavs/castilian_match_interrogative-total-yn_Emilio-ama-la-marcha.wav,./stim/wavs/chilean_match_interrogative-total-yn_Emilio-ama-la-marcha.wav,./stim/wavs/cuban_match_interrogative-total-yn_Emilio-ama-la-marcha.wav,./stim/wavs/mexican_match_interrogative-total-yn_Emilio-ama-la-marcha.wav,./stim/wavs/peruvian_match_interrogative-total-yn_Emilio-ama-la-marcha.wav,./stim/wavs/puertorican_match_interrogative-total-yn_Emilio-ama-la-marcha.wav
,,,,,,,5e902a581baf783237598a3c,602ab2f3ccc37d12d58ba79b,602b202d24ce4c233dfd0f8b,Mexicano,No,2021-02-15_19h32.45.710,empathy_intonation_perc_sp,2020.2.10,Win32,60,,,,,,,,,,0,peruvian,0,1,1.760445,0,5,5,12,1,13,./stim/wavs/andalusian_match_declarative-narrow-focus_Manuela-vende-el-carro.wav,./stim/wavs/argentine_match_declarative-narrow-focus_Manuela-vende-el-carro.wav,./stim/wavs/castilian_match_declarative-narrow-focus_Manuela-vende-el-carro.wav,./stim/wavs/chilean_match_declarative-narrow-focus_Manuela-vende-el-carro.wav,./stim/wavs/cuban_match_declarative-narrow-focus_Manuela-vende-el-carro.wav,./stim/wavs/mexican_match_declarative-narrow-focus_Manuela-vende-el-carro.wav,./stim/wavs/peruvian_match_declarative-narrow-focus_Manuela-vende-el-carro.wav,./stim/wavs/puertorican_match_declarative-narrow-focus_Manuela-vende-el-carro.wav
,,,,,,,5e902a581baf783237598a3c,602ab2f3ccc37d12d58ba79b,602b202d24ce4c233dfd0f8b,Mexicano,No,2021-02-15_19h32.45.710,empathy_intonation_perc_sp,2020.2.10,Win32,60,,,,,,,,,,0,puertorican,0,1,1.81016,0,6,6,40,1,41,./stim/wavs/andalusian_mismatch_declarative-narrow-focus_El-bebe-comia-muy-bien.wav,./stim/wavs/argentine_mismatch_declarative-narrow-focus_El-bebe-comia-muy-bien.wav,./stim/wavs/castilian_mismatch_declarative-narrow-focus_El-bebe-comia-muy-bien.wav,./stim/wavs/chilean_mismatch_declarative-narrow-focus_El-bebe-comia-muy-bien.wav,./stim/wavs/cuban_mismatch_declarative-narrow-focus_El-bebe-comia-muy-bien.wav,./stim/wavs/mexican_mismatch_declarative-narrow-focus_El-bebe-comia-muy-bien.wav,./stim/wavs/peruvian_mismatch_declarative-narrow-focus_El-bebe-comia-muy-bien.wav,./stim/wavs/puertorican_mismatch_declarative-narrow-focus_El-bebe-comia-muy-bien.wav
,,,,,,,5e902a581baf783237598a3c,602ab2f3ccc37d12d58ba79b,602b202d24ce4c233dfd0f8b,Mexicano,No,2021-02-15_19h32.45.710,empathy_intonation_perc_sp,2020.2.10,Win32,60,,,,,,,,,,1,argentine,1,1,1.76063,0,7,7,19,1,20,./stim/wavs/andalusian_match_interrogative-partial-wh_Cuando-vendia-el-carro.wav,./stim/wavs/argentine_match_interrogative-partial-wh_Cuando-vendia-el-carro.wav,./stim/wavs/castilian_match_interrogative-partial-wh_Cuando-vendia-el-carro.wav,./stim/wavs/chilean_match_interrogative-partial-wh_Cuando-vendia-el-carro.wav,./stim/wavs/cuban_match_interrogative-partial-wh_Cuando-vendia-el-carro.wav,./stim/wavs/mexican_match_interrogative-partial-wh_Cuando-vendia-el-carro.wav,./stim/wavs/peruvian_match_interrogative-partial-wh_Cuando-vendia-el-carro.wav,./stim/wavs/puertorican_match_interrogative-partial-wh_Cuando-vendia-el-carro.wav
,,,,,,,5e902a581baf783237598a3c,602ab2f3ccc37d12d58ba79b,602b202d24ce4c233dfd0f8b,Mexicano,No,2021-02-15_19h32.45.710,empathy_intonation_perc_sp,2020.2.10,Win32,60,,,,,,,,,,1,cuban,1,1,1.913125,0,8,8,58,1,59,./stim/wavs/andalusian_mismatch_interrogative-total-yn_El-nino-oye-el-rio.wav,./stim/wavs/argentine_mismatch_interrogative-total-yn_El-nino-oye-el-rio.wav,./stim/wavs/castilian_mismatch_interrogative-total-yn_El-nino-oye-el-rio.wav,./stim/wavs/chilean_mismatch_interrogative-total-yn_El-nino-oye-el-rio.wav,./stim/wavs/cuban_mismatch_interrogative-total-yn_El-nino-oye-el-rio.wav,./stim/wavs/mexican_mismatch_interrogative-total-yn_El-nino-oye-el-rio.wav,./stim/wavs/peruvian_mismatch_interrogative-total-yn_El-nino-oye-el-rio.wav,./stim/wavs/puertorican_mismatch_interrogative-total-yn_El-nino-oye-el-rio.wav
,,,,,,,5e902a581baf783237598a3c,602ab2f3ccc37d12d58ba79b,602b202d24ce4c233dfd0f8b,Mexicano,No,2021-02-15_19h32.45.710,empathy_intonation_perc_sp,2020.2.10,Win32,60,,,,,,,,,,1,puertorican,1,1,1.761425,0,9,9,53,1,54,./stim/wavs/andalusian_mismatch_interrogative-partial-wh_Por-que-oia-el-rio.wav,./stim/wavs/argentine_mismatch_interrogative-partial-wh_Por-que-oia-el-rio.wav,./stim/wavs/castilian_mismatch_interrogative-partial-wh_Por-que-oia-el-rio.wav,./stim/wavs/chilean_mismatch_interrogative-partial-wh_Por-que-oia-el-rio.wav,./stim/wavs/cuban_mismatch_interrogative-partial-wh_Por-que-oia-el-rio.wav,./stim/wavs/mexican_mismatch_interrogative-partial-wh_Por-que-oia-el-rio.wav,./stim/wavs/peruvian_mismatch_interrogative-partial-wh_Por-que-oia-el-rio.wav,./stim/wavs/puertorican_mismatch_interrogative-partial-wh_Por-que-oia-el-rio.wav
,,,,,,,5e902a581baf783237598a3c,602ab2f3ccc37d12d58ba79b,602b202d24ce4c233dfd0f8b,Mexicano,No,2021-02-15_19h32.45.710,empathy_intonation_perc_sp,2020.2.10,Win32,60,,,,,,,,,,1,chilean,1,1,1.71123,0,10,10,52,1,53,./stim/wavs/andalusian_mismatch_interrogative-partial-wh_Por-que-odiaba-la-lluvia.wav,./stim/wavs/argentine_mismatch_interrogative-partial-wh_Por-que-odiaba-la-lluvia.wav,./stim/wavs/castilian_mismatch_interrogative-partial-wh_Por-que-odiaba-la-lluvia.wav,./stim/wavs/chilean_mismatch_interrogative-partial-wh_Por-que-odiaba-la-lluvia.wav,./stim/wavs/cuban_mismatch_interrogative-partial-wh_Por-que-odiaba-la-lluvia.wav,./stim/wavs/mexican_mismatch_interrogative-partial-wh_Por-que-odiaba-la-lluvia.wav,./stim/wavs/peruvian_mismatch_interrogative-partial-wh_Por-que-odiaba-la-lluvia.wav,./stim/wavs/puertorican_mismatch_interrogative-partial-wh_Por-que-odiaba-la-lluvia.wav
,,,,,,,5e902a581baf783237598a3c,602ab2f3ccc37d12d58ba79b,602b202d24ce4c233dfd0f8b,Mexicano,No,2021-02-15_19h32.45.710,empathy_intonation_perc_sp,2020.2.10,Win32,60,,,,,,,,,,0,mexican,0,1,1.661055,0,11,11,0,1,1,./stim/wavs/andalusian_match_declarative-broad-focus_Ana-lleva-el-abrigo.wav,./stim/wavs/argentine_match_declarative-broad-focus_Ana-lleva-el-abrigo.wav,./stim/wavs/castilian_match_declarative-broad-focus_Ana-lleva-el-abrigo.wav,./stim/wavs/chilean_match_declarative-broad-focus_Ana-lleva-el-abrigo.wav,./stim/wavs/cuban_match_declarative-broad-focus_Ana-lleva-el-abrigo.wav,./stim/wavs/mexican_match_declarative-broad-focus_Ana-lleva-el-abrigo.wav,./stim/wavs/peruvian_match_declarative-broad-focus_Ana-lleva-el-abrigo.wav,./stim/wavs/puertorican_match_declarative-broad-focus_Ana-lleva-el-abrigo.wav
,,,,,,,5e902a581baf783237598a3c,602ab2f3ccc37d12d58ba79b,602b202d24ce4c233dfd0f8b,Mexicano,No,2021-02-15_19h32.45.710,empathy_intonation_perc_sp,2020.2.10,Win32,60,,,,,,,,,,0,puertorican,0,1,1.615825,0,12,12,2,1,3,./stim/wavs/andalusian_match_declarative-broad-focus_David-leia-el-libro.wav,./stim/wavs/argentine_match_declarative-broad-focus_David-leia-el-libro.wav,./stim/wavs/castilian_match_declarative-broad-focus_David-leia-el-libro.wav,./stim/wavs/chilean_match_declarative-broad-focus_David-leia-el-libro.wav,./stim/wavs/cuban_match_declarative-broad-focus_David-leia-el-libro.wav,./stim/wavs/mexican_match_declarative-broad-focus_David-leia-el-libro.wav,./stim/wavs/peruvian_match_declarative-broad-focus_David-leia-el-libro.wav,./stim/wavs/puertorican_match_declarative-broad-focus_David-leia-el-libro.wav
,,,,,,,5e902a581baf783237598a3c,602ab2f3ccc37d12d58ba79b,602b202d24ce4c233dfd0f8b,Mexicano,No,2021-02-15_19h32.45.710,empathy_intonation_perc_sp,2020.2.10,Win32,60,,,,,,,,,,0,peruvian,0,1,1.571385,0,13,13,39,1,40,./stim/wavs/andalusian_mismatch_declarative-broad-focus_Mi-tia-odia-la-lluvia.wav,./stim/wavs/argentine_mismatch_declarative-broad-focus_Mi-tia-odia-la-lluvia.wav,./stim/wavs/castilian_mismatch_declarative-broad-focus_Mi-tia-odia-la-lluvia.wav,./stim/wavs/chilean_mismatch_declarative-broad-focus_Mi-tia-odia-la-lluvia.wav,./stim/wavs/cuban_mismatch_declarative-broad-focus_Mi-tia-odia-la-lluvia.wav,./stim/wavs/mexican_mismatch_declarative-broad-focus_Mi-tia-odia-la-lluvia.wav,./stim/wavs/peruvian_mismatch_declarative-broad-focus_Mi-tia-odia-la-lluvia.wav,./stim/wavs/puertorican_mismatch_declarative-broad-focus_Mi-tia-odia-la-lluvia.wav
,,,,,,,5e902a581baf783237598a3c,602ab2f3ccc37d12d58ba79b,602b202d24ce4c233dfd0f8b,Mexicano,No,2021-02-15_19h32.45.710,empathy_intonation_perc_sp,2020.2.10,Win32,60,,,,,,,,,,1,argentine,1,1,1.71082,0,14,14,60,1,61,./stim/wavs/andalusian_mismatch_interrogative-total-yn_La-nina-lava-el-plato.wav,./stim/wavs/argentine_mismatch_interrogative-total-yn_La-nina-lava-el-plato.wav,./stim/wavs/castilian_mismatch_interrogative-total-yn_La-nina-lava-el-plato.wav,./stim/wavs/chilean_mismatch_interrogative-total-yn_La-nina-lava-el-plato.wav,./stim/wavs/cuban_mismatch_interrogative-total-yn_La-nina-lava-el-plato.wav,./stim/wavs/mexican_mismatch_interrogative-total-yn_La-nina-lava-el-plato.wav,./stim/wavs/peruvian_mismatch_interrogative-total-yn_La-nina-lava-el-plato.wav,./stim/wavs/puertorican_mismatch_interrogative-total-yn_La-nina-lava-el-plato.wav
,,,,,,,5e902a581baf783237598a3c,602ab2f3ccc37d12d58ba79b,602b202d24ce4c233dfd0f8b,Mexicano,No,2021-02-15_19h32.45.710,empathy_intonation_perc_sp,2020.2.10,Win32,60,,,,,,,,,,0,chilean,0,1,3.238395,0,15,15,35,1,36,./stim/wavs/andalusian_mismatch_declarative-broad-focus_La-maestra-vive-en-Paris.wav,./stim/wavs/argentine_mismatch_declarative-broad-focus_La-maestra-vive-en-Paris.wav,./stim/wavs/castilian_mismatch_declarative-broad-focus_La-maestra-vive-en-Paris.wav,./stim/wavs/chilean_mismatch_declarative-broad-focus_La-maestra-vive-en-Paris.wav,./stim/wavs/cuban_mismatch_declarative-broad-focus_La-maestra-vive-en-Paris.wav,./stim/wavs/mexican_mismatch_declarative-broad-focus_La-maestra-vive-en-Paris.wav,./stim/wavs/peruvian_mismatch_declarative-broad-focus_La-maestra-vive-en-Paris.wav,./stim/wavs/puertorican_mismatch_declarative-broad-focus_La-maestra-vive-en-Paris.wav
,,,,,,,5e902a581baf783237598a3c,602ab2f3ccc37d12d58ba79b,602b202d24ce4c233dfd0f8b,Mexicano,No,2021-02-15_19h32.45.710,empathy_intonation_perc_sp,2020.2.10,Win32,60,,,,,,,,,,0,argentine,0,1,1.64398,0,16,16,36,1,37,./stim/wavs/andalusian_mismatch_declarative-broad-focus_La-nina-lava-el-plato.wav,./stim/wavs/argentine_mismatch_declarative-broad-focus_La-nina-lava-el-plato.wav,./stim/wavs/castilian_mismatch_declarative-broad-focus_La-nina-lava-el-plato.wav,./stim/wavs/chilean_mismatch_declarative-broad-focus_La-nina-lava-el-plato.wav,./stim/wavs/cuban_mismatch_declarative-broad-focus_La-nina-lava-el-plato.wav,./stim/wavs/mexican_mismatch_declarative-broad-focus_La-nina-lava-el-plato.wav,./stim/wavs/peruvian_mismatch_declarative-broad-focus_La-nina-lava-el-plato.wav,./stim/wavs/puertorican_mismatch_declarative-broad-focus_La-nina-lava-el-plato.wav
,,,,,,,5e902a581baf783237598a3c,602ab2f3ccc37d12d58ba79b,602b202d24ce4c233dfd0f8b,Mexicano,No,2021-02-15_19h32.45.710,empathy_intonation_perc_sp,2020.2.10,Win32,60,,,,,,,,,,0,andalusian,0,1,1.891215,0,17,17,38,1,39,./stim/wavs/andalusian_mismatch_declarative-broad-focus_Mi-novio-viene-del-lago.wav,./stim/wavs/argentine_mismatch_declarative-broad-focus_Mi-novio-viene-del-lago.wav,./stim/wavs/castilian_mismatch_declarative-broad-focus_Mi-novio-viene-del-lago.wav,./stim/wavs/chilean_mismatch_declarative-broad-focus_Mi-novio-viene-del-lago.wav,./stim/wavs/cuban_mismatch_declarative-broad-focus_Mi-novio-viene-del-lago.wav,./stim/wavs/mexican_mismatch_declarative-broad-focus_Mi-novio-viene-del-lago.wav,./stim/wavs/peruvian_mismatch_declarative-broad-focus_Mi-novio-viene-del-lago.wav,./stim/wavs/puertorican_mismatch_declarative-broad-focus_Mi-novio-viene-del-lago.wav
,,,,,,,5e902a581baf783237598a3c,602ab2f3ccc37d12d58ba79b,602b202d24ce4c233dfd0f8b,Mexicano,No,2021-02-15_19h32.45.710,empathy_intonation_perc_sp,2020.2.10,Win32,60,,,,,,,,,,0,cuban,0,1,1.7606,0,18,18,7,1,8,./stim/wavs/andalusian_match_declarative-broad-focus_Marta-abre-el-regalo.wav,./stim/wavs/argentine_match_declarative-broad-focus_Marta-abre-el-regalo.wav,./stim/wavs/castilian_match_declarative-broad-focus_Marta-abre-el-regalo.wav,./stim/wavs/chilean_match_declarative-broad-focus_Marta-abre-el-regalo.wav,./stim/wavs/cuban_match_declarative-broad-focus_Marta-abre-el-regalo.wav,./stim/wavs/mexican_match_declarative-broad-focus_Marta-abre-el-regalo.wav,./stim/wavs/peruvian_match_declarative-broad-focus_Marta-abre-el-regalo.wav,./stim/wavs/puertorican_match_declarative-broad-focus_Marta-abre-el-regalo.wav
,,,,,,,5e902a581baf783237598a3c,602ab2f3ccc37d12d58ba79b,602b202d24ce4c233dfd0f8b,Mexicano,No,2021-02-15_19h32.45.710,empathy_intonation_perc_sp,2020.2.10,Win32,60,,,,,,,,,,0,chilean,0,1,1.752425,0,19,19,6,1,7,./stim/wavs/andalusian_match_declarative-broad-focus_Mariano-habla-del-tiempo.wav,./stim/wavs/argentine_match_declarative-broad-focus_Mariano-habla-del-tiempo.wav,./stim/wavs/castilian_match_declarative-broad-focus_Mariano-habla-del-tiempo.wav,./stim/wavs/chilean_match_declarative-broad-focus_Mariano-habla-del-tiempo.wav,./stim/wavs/cuban_match_declarative-broad-focus_Mariano-habla-del-tiempo.wav,./stim/wavs/mexican_match_declarative-broad-focus_Mariano-habla-del-tiempo.wav,./stim/wavs/peruvian_match_declarative-broad-focus_Mariano-habla-del-tiempo.wav,./stim/wavs/puertorican_match_declarative-broad-focus_Mariano-habla-del-tiempo.wav
,,,,,,,5e902a581baf783237598a3c,602ab2f3ccc37d12d58ba79b,602b202d24ce4c233dfd0f8b,Mexicano,No,2021-02-15_19h32.45.710,empathy_intonation_perc_sp,2020.2.10,Win32,60,,,,,,,,,,0,peruvian,0,1,1.72748,0,20,20,33,1,34,./stim/wavs/andalusian_mismatch_declarative-broad-focus_El-hombre-mira-la-luna.wav,./stim/wavs/argentine_mismatch_declarative-broad-focus_El-hombre-mira-la-luna.wav,./stim/wavs/castilian_mismatch_declarative-broad-focus_El-hombre-mira-la-luna.wav,./stim/wavs/chilean_mismatch_declarative-broad-focus_El-hombre-mira-la-luna.wav,./stim/wavs/cuban_mismatch_declarative-broad-focus_El-hombre-mira-la-luna.wav,./stim/wavs/mexican_mismatch_declarative-broad-focus_El-hombre-mira-la-luna.wav,./stim/wavs/peruvian_mismatch_declarative-broad-focus_El-hombre-mira-la-luna.wav,./stim/wavs/puertorican_mismatch_declarative-broad-focus_El-hombre-mira-la-luna.wav
,,,,,,,5e902a581baf783237598a3c,602ab2f3ccc37d12d58ba79b,602b202d24ce4c233dfd0f8b,Mexicano,No,2021-02-15_19h32.45.710,empathy_intonation_perc_sp,2020.2.10,Win32,60,,,,,,,,,,1,castilian,1,1,1.760645,0,21,21,54,1,55,./stim/wavs/andalusian_mismatch_interrogative-partial-wh_Por-que-venia-del-lago.wav,./stim/wavs/argentine_mismatch_interrogative-partial-wh_Por-que-venia-del-lago.wav,./stim/wavs/castilian_mismatch_interrogative-partial-wh_Por-que-venia-del-lago.wav,./stim/wavs/chilean_mismatch_interrogative-partial-wh_Por-que-venia-del-lago.wav,./stim/wavs/cuban_mismatch_interrogative-partial-wh_Por-que-venia-del-lago.wav,./stim/wavs/mexican_mismatch_interrogative-partial-wh_Por-que-venia-del-lago.wav,./stim/wavs/peruvian_mismatch_interrogative-partial-wh_Por-que-venia-del-lago.wav,./stim/wavs/puertorican_mismatch_interrogative-partial-wh_Por-que-venia-del-lago.wav
,,,,,,,5e902a581baf783237598a3c,602ab2f3ccc37d12d58ba79b,602b202d24ce4c233dfd0f8b,Mexicano,No,2021-02-15_19h32.45.710,empathy_intonation_perc_sp,2020.2.10,Win32,60,,,,,,,,,,1,cuban,1,1,1.677585,0,22,22,17,1,18,./stim/wavs/andalusian_match_interrogative-partial-wh_Cuando-leia-el-libro.wav,./stim/wavs/argentine_match_interrogative-partial-wh_Cuando-leia-el-libro.wav,./stim/wavs/castilian_match_interrogative-partial-wh_Cuando-leia-el-libro.wav,./stim/wavs/chilean_match_interrogative-partial-wh_Cuando-leia-el-libro.wav,./stim/wavs/cuban_match_interrogative-partial-wh_Cuando-leia-el-libro.wav,./stim/wavs/mexican_match_interrogative-partial-wh_Cuando-leia-el-libro.wav,./stim/wavs/peruvian_match_interrogative-partial-wh_Cuando-leia-el-libro.wav,./stim/wavs/puertorican_match_interrogative-partial-wh_Cuando-leia-el-libro.wav
,,,,,,,5e902a581baf783237598a3c,602ab2f3ccc37d12d58ba79b,602b202d24ce4c233dfd0f8b,Mexicano,No,2021-02-15_19h32.45.710,empathy_intonation_perc_sp,2020.2.10,Win32,60,,,,,,,,,,1,mexican,1,1,1.79382,0,23,23,63,1,64,./stim/wavs/andalusian_mismatch_interrogative-total-yn_Mi-tia-odia-la-lluvia.wav,./stim/wavs/argentine_mismatch_interrogative-total-yn_Mi-tia-odia-la-lluvia.wav,./stim/wavs/castilian_mismatch_interrogative-total-yn_Mi-tia-odia-la-lluvia.wav,./stim/wavs/chilean_mismatch_interrogative-total-yn_Mi-tia-odia-la-lluvia.wav,./stim/wavs/cuban_mismatch_interrogative-total-yn_Mi-tia-odia-la-lluvia.wav,./stim/wavs/mexican_mismatch_interrogative-total-yn_Mi-tia-odia-la-lluvia.wav,./stim/wavs/peruvian_mismatch_interrogative-total-yn_Mi-tia-odia-la-lluvia.wav,./stim/wavs/puertorican_mismatch_interrogative-total-yn_Mi-tia-odia-la-lluvia.wav
,,,,,,,5e902a581baf783237598a3c,602ab2f3ccc37d12d58ba79b,602b202d24ce4c233dfd0f8b,Mexicano,No,2021-02-15_19h32.45.710,empathy_intonation_perc_sp,2020.2.10,Win32,60,,,,,,,,,,0,chilean,0,1,1.518215,0,24,24,32,1,33,./stim/wavs/andalusian_mismatch_declarative-broad-focus_El-bebe-comia-muy-bien.wav,./stim/wavs/argentine_mismatch_declarative-broad-focus_El-bebe-comia-muy-bien.wav,./stim/wavs/castilian_mismatch_declarative-broad-focus_El-bebe-comia-muy-bien.wav,./stim/wavs/chilean_mismatch_declarative-broad-focus_El-bebe-comia-muy-bien.wav,./stim/wavs/cuban_mismatch_declarative-broad-focus_El-bebe-comia-muy-bien.wav,./stim/wavs/mexican_mismatch_declarative-broad-focus_El-bebe-comia-muy-bien.wav,./stim/wavs/peruvian_mismatch_declarative-broad-focus_El-bebe-comia-muy-bien.wav,./stim/wavs/puertorican_mismatch_declarative-broad-focus_El-bebe-comia-muy-bien.wav
,,,,,,,5e902a581baf783237598a3c,602ab2f3ccc37d12d58ba79b,602b202d24ce4c233dfd0f8b,Mexicano,No,2021-02-15_19h32.45.710,empathy_intonation_perc_sp,2020.2.10,Win32,60,,,,,,,,,,1,cuban,0,0,2.1761,0,25,25,51,1,52,./stim/wavs/andalusian_mismatch_interrogative-partial-wh_Por-que-desayuna-muy-bien.wav,./stim/wavs/argentine_mismatch_interrogative-partial-wh_Por-que-desayuna-muy-bien.wav,./stim/wavs/castilian_mismatch_interrogative-partial-wh_Por-que-desayuna-muy-bien.wav,./stim/wavs/chilean_mismatch_interrogative-partial-wh_Por-que-desayuna-muy-bien.wav,./stim/wavs/cuban_mismatch_interrogative-partial-wh_Por-que-desayuna-muy-bien.wav,./stim/wavs/mexican_mismatch_interrogative-partial-wh_Por-que-desayuna-muy-bien.wav,./stim/wavs/peruvian_mismatch_interrogative-partial-wh_Por-que-desayuna-muy-bien.wav,./stim/wavs/puertorican_mismatch_interrogative-partial-wh_Por-que-desayuna-muy-bien.wav
,,,,,,,5e902a581baf783237598a3c,602ab2f3ccc37d12d58ba79b,602b202d24ce4c233dfd0f8b,Mexicano,No,2021-02-15_19h32.45.710,empathy_intonation_perc_sp,2020.2.10,Win32,60,,,,,,,,,,1,argentine,1,1,1.843455,0,26,26,62,1,63,./stim/wavs/andalusian_mismatch_interrogative-total-yn_Mi-novio-viene-del-lago.wav,./stim/wavs/argentine_mismatch_interrogative-total-yn_Mi-novio-viene-del-lago.wav,./stim/wavs/castilian_mismatch_interrogative-total-yn_Mi-novio-viene-del-lago.wav,./stim/wavs/chilean_mismatch_interrogative-total-yn_Mi-novio-viene-del-lago.wav,./stim/wavs/cuban_mismatch_interrogative-total-yn_Mi-novio-viene-del-lago.wav,./stim/wavs/mexican_mismatch_interrogative-total-yn_Mi-novio-viene-del-lago.wav,./stim/wavs/peruvian_mismatch_interrogative-total-yn_Mi-novio-viene-del-lago.wav,./stim/wavs/puertorican_mismatch_interrogative-total-yn_Mi-novio-viene-del-lago.wav
,,,,,,,5e902a581baf783237598a3c,602ab2f3ccc37d12d58ba79b,602b202d24ce4c233dfd0f8b,Mexicano,No,2021-02-15_19h32.45.710,empathy_intonation_perc_sp,2020.2.10,Win32,60,,,,,,,,,,0,peruvian,0,1,1.6949,0,27,27,10,1,11,./stim/wavs/andalusian_match_declarative-narrow-focus_David-leia-el-libro.wav,./stim/wavs/argentine_match_declarative-narrow-focus_David-leia-el-libro.wav,./stim/wavs/castilian_match_declarative-narrow-focus_David-leia-el-libro.wav,./stim/wavs/chilean_match_declarative-narrow-focus_David-leia-el-libro.wav,./stim/wavs/cuban_match_declarative-narrow-focus_David-leia-el-libro.wav,./stim/wavs/mexican_match_declarative-narrow-focus_David-leia-el-libro.wav,./stim/wavs/peruvian_match_declarative-narrow-focus_David-leia-el-libro.wav,./stim/wavs/puertorican_match_declarative-narrow-focus_David-leia-el-libro.wav
,,,,,,,5e902a581baf783237598a3c,602ab2f3ccc37d12d58ba79b,602b202d24ce4c233dfd0f8b,Mexicano,No,2021-02-15_19h32.45.710,empathy_intonation_perc_sp,2020.2.10,Win32,60,,,,,,,,,,0,peruvian,0,1,2.269335,0,28,28,47,1,48,./stim/wavs/andalusian_mismatch_declarative-narrow-focus_Mi-tia-odia-la-lluvia.wav,./stim/wavs/argentine_mismatch_declarative-narrow-focus_Mi-tia-odia-la-lluvia.wav,./stim/wavs/castilian_mismatch_declarative-narrow-focus_Mi-tia-odia-la-lluvia.wav,./stim/wavs/chilean_mismatch_declarative-narrow-focus_Mi-tia-odia-la-lluvia.wav,./stim/wavs/cuban_mismatch_declarative-narrow-focus_Mi-tia-odia-la-lluvia.wav,./stim/wavs/mexican_mismatch_declarative-narrow-focus_Mi-tia-odia-la-lluvia.wav,./stim/wavs/peruvian_mismatch_declarative-narrow-focus_Mi-tia-odia-la-lluvia.wav,./stim/wavs/puertorican_mismatch_declarative-narrow-focus_Mi-tia-odia-la-lluvia.wav
,,,,,,,5e902a581baf783237598a3c,602ab2f3ccc37d12d58ba79b,602b202d24ce4c233dfd0f8b,Mexicano,No,2021-02-15_19h32.45.710,empathy_intonation_perc_sp,2020.2.10,Win32,60,,,,,,,,,,0,castilian,0,1,1.86769,0,29,29,4,1,5,./stim/wavs/andalusian_match_declarative-broad-focus_Manuela-vende-el-carro.wav,./stim/wavs/argentine_match_declarative-broad-focus_Manuela-vende-el-carro.wav,./stim/wavs/castilian_match_declarative-broad-focus_Manuela-vende-el-carro.wav,./stim/wavs/chilean_match_declarative-broad-focus_Manuela-vende-el-carro.wav,./stim/wavs/cuban_match_declarative-broad-focus_Manuela-vende-el-carro.wav,./stim/wavs/mexican_match_declarative-broad-focus_Manuela-vende-el-carro.wav,./stim/wavs/peruvian_match_declarative-broad-focus_Manuela-vende-el-carro.wav,./stim/wavs/puertorican_match_declarative-broad-focus_Manuela-vende-el-carro.wav
,,,,,,,5e902a581baf783237598a3c,602ab2f3ccc37d12d58ba79b,602b202d24ce4c233dfd0f8b,Mexicano,No,2021-02-15_19h32.45.710,empathy_intonation_perc_sp,2020.2.10,Win32,60,,,,,,,,,,1,peruvian,1,1,1.93259,0,30,30,20,1,21,./stim/wavs/andalusian_match_interrogative-partial-wh_Por-que-abre-el-regalo.wav,./stim/wavs/argentine_match_interrogative-partial-wh_Por-que-abre-el-regalo.wav,./stim/wavs/castilian_match_interrogative-partial-wh_Por-que-abre-el-regalo.wav,./stim/wavs/chilean_match_interrogative-partial-wh_Por-que-abre-el-regalo.wav,./stim/wavs/cuban_match_interrogative-partial-wh_Por-que-abre-el-regalo.wav,./stim/wavs/mexican_match_interrogative-partial-wh_Por-que-abre-el-regalo.wav,./stim/wavs/peruvian_match_interrogative-partial-wh_Por-que-abre-el-regalo.wav,./stim/wavs/puertorican_match_interrogative-partial-wh_Por-que-abre-el-regalo.wav
,,,,,,,5e902a581baf783237598a3c,602ab2f3ccc37d12d58ba79b,602b202d24ce4c233dfd0f8b,Mexicano,No,2021-02-15_19h32.45.710,empathy_intonation_perc_sp,2020.2.10,Win32,60,,,,,,,,,,0,puertorican,0,1,1.87983,0,31,31,3,1,4,./stim/wavs/andalusian_match_declarative-broad-focus_Emilio-ama-la-marcha.wav,./stim/wavs/argentine_match_declarative-broad-focus_Emilio-ama-la-marcha.wav,./stim/wavs/castilian_match_declarative-broad-focus_Emilio-ama-la-marcha.wav,./stim/wavs/chilean_match_declarative-broad-focus_Emilio-ama-la-marcha.wav,./stim/wavs/cuban_match_declarative-broad-focus_Emilio-ama-la-marcha.wav,./stim/wavs/mexican_match_declarative-broad-focus_Emilio-ama-la-marcha.wav,./stim/wavs/peruvian_match_declarative-broad-focus_Emilio-ama-la-marcha.wav,./stim/wavs/puertorican_match_declarative-broad-focus_Emilio-ama-la-marcha.wav
,,,,,,,5e902a581baf783237598a3c,602ab2f3ccc37d12d58ba79b,602b202d24ce4c233dfd0f8b,Mexicano,No,2021-02-15_19h32.45.710,empathy_intonation_perc_sp,2020.2.10,Win32,60,,,,,,,,,,0,chilean,0,1,2.194195,0,32,32,14,1,15,./stim/wavs/andalusian_match_declarative-narrow-focus_Mariano-habla-del-tiempo.wav,./stim/wavs/argentine_match_declarative-narrow-focus_Mariano-habla-del-tiempo.wav,./stim/wavs/castilian_match_declarative-narrow-focus_Mariano-habla-del-tiempo.wav,./stim/wavs/chilean_match_declarative-narrow-focus_Mariano-habla-del-tiempo.wav,./stim/wavs/cuban_match_declarative-narrow-focus_Mariano-habla-del-tiempo.wav,./stim/wavs/mexican_match_declarative-narrow-focus_Mariano-habla-del-tiempo.wav,./stim/wavs/peruvian_match_declarative-narrow-focus_Mariano-habla-del-tiempo.wav,./stim/wavs/puertorican_match_declarative-narrow-focus_Mariano-habla-del-tiempo.wav
,,,,,,,5e902a581baf783237598a3c,602ab2f3ccc37d12d58ba79b,602b202d24ce4c233dfd0f8b,Mexicano,No,2021-02-15_19h32.45.710,empathy_intonation_perc_sp,2020.2.10,Win32,60,,,,,,,,,,0,puertorican,0,1,1.682735,0,33,33,9,1,10,./stim/wavs/andalusian_match_declarative-narrow-focus_Daniel-iba-a-Bolivia.wav,./stim/wavs/argentine_match_declarative-narrow-focus_Daniel-iba-a-Bolivia.wav,./stim/wavs/castilian_match_declarative-narrow-focus_Daniel-iba-a-Bolivia.wav,./stim/wavs/chilean_match_declarative-narrow-focus_Daniel-iba-a-Bolivia.wav,./stim/wavs/cuban_match_declarative-narrow-focus_Daniel-iba-a-Bolivia.wav,./stim/wavs/mexican_match_declarative-narrow-focus_Daniel-iba-a-Bolivia.wav,./stim/wavs/peruvian_match_declarative-narrow-focus_Daniel-iba-a-Bolivia.wav,./stim/wavs/puertorican_match_declarative-narrow-focus_Daniel-iba-a-Bolivia.wav
,,,,,,,5e902a581baf783237598a3c,602ab2f3ccc37d12d58ba79b,602b202d24ce4c233dfd0f8b,Mexicano,No,2021-02-15_19h32.45.710,empathy_intonation_perc_sp,2020.2.10,Win32,60,,,,,,,,,,1,chilean,1,1,3.03437,0,34,34,61,1,62,./stim/wavs/andalusian_mismatch_interrogative-total-yn_Mi-madre-come-la-fruta.wav,./stim/wavs/argentine_mismatch_interrogative-total-yn_Mi-madre-come-la-fruta.wav,./stim/wavs/castilian_mismatch_interrogative-total-yn_Mi-madre-come-la-fruta.wav,./stim/wavs/chilean_mismatch_interrogative-total-yn_Mi-madre-come-la-fruta.wav,./stim/wavs/cuban_mismatch_interrogative-total-yn_Mi-madre-come-la-fruta.wav,./stim/wavs/mexican_mismatch_interrogative-total-yn_Mi-madre-come-la-fruta.wav,./stim/wavs/peruvian_mismatch_interrogative-total-yn_Mi-madre-come-la-fruta.wav,./stim/wavs/puertorican_mismatch_interrogative-total-yn_Mi-madre-come-la-fruta.wav
,,,,,,,5e902a581baf783237598a3c,602ab2f3ccc37d12d58ba79b,602b202d24ce4c233dfd0f8b,Mexicano,No,2021-02-15_19h32.45.710,empathy_intonation_perc_sp,2020.2.10,Win32,60,,,,,,,,,,1,argentine,1,1,1.63075,0,35,35,21,1,22,./stim/wavs/andalusian_match_interrogative-partial-wh_Por-que-ama-la-navidad.wav,./stim/wavs/argentine_match_interrogative-partial-wh_Por-que-ama-la-navidad.wav,./stim/wavs/castilian_match_interrogative-partial-wh_Por-que-ama-la-navidad.wav,./stim/wavs/chilean_match_interrogative-partial-wh_Por-que-ama-la-navidad.wav,./stim/wavs/cuban_match_interrogative-partial-wh_Por-que-ama-la-navidad.wav,./stim/wavs/mexican_match_interrogative-partial-wh_Por-que-ama-la-navidad.wav,./stim/wavs/peruvian_match_interrogative-partial-wh_Por-que-ama-la-navidad.wav,./stim/wavs/puertorican_match_interrogative-partial-wh_Por-que-ama-la-navidad.wav
,,,,,,,5e902a581baf783237598a3c,602ab2f3ccc37d12d58ba79b,602b202d24ce4c233dfd0f8b,Mexicano,No,2021-02-15_19h32.45.710,empathy_intonation_perc_sp,2020.2.10,Win32,60,,,,,,,,,,1,mexican,1,1,1.662135,0,36,36,31,1,32,./stim/wavs/andalusian_match_interrogative-total-yn_Marta-abre-el-regalo.wav,./stim/wavs/argentine_match_interrogative-total-yn_Marta-abre-el-regalo.wav,./stim/wavs/castilian_match_interrogative-total-yn_Marta-abre-el-regalo.wav,./stim/wavs/chilean_match_interrogative-total-yn_Marta-abre-el-regalo.wav,./stim/wavs/cuban_match_interrogative-total-yn_Marta-abre-el-regalo.wav,./stim/wavs/mexican_match_interrogative-total-yn_Marta-abre-el-regalo.wav,./stim/wavs/peruvian_match_interrogative-total-yn_Marta-abre-el-regalo.wav,./stim/wavs/puertorican_match_interrogative-total-yn_Marta-abre-el-regalo.wav
,,,,,,,5e902a581baf783237598a3c,602ab2f3ccc37d12d58ba79b,602b202d24ce4c233dfd0f8b,Mexicano,No,2021-02-15_19h32.45.710,empathy_intonation_perc_sp,2020.2.10,Win32,60,,,,,,,,,,0,puertorican,0,1,1.527505,0,37,37,42,1,43,./stim/wavs/andalusian_mismatch_declarative-narrow-focus_El-nino-oye-el-rio.wav,./stim/wavs/argentine_mismatch_declarative-narrow-focus_El-nino-oye-el-rio.wav,./stim/wavs/castilian_mismatch_declarative-narrow-focus_El-nino-oye-el-rio.wav,./stim/wavs/chilean_mismatch_declarative-narrow-focus_El-nino-oye-el-rio.wav,./stim/wavs/cuban_mismatch_declarative-narrow-focus_El-nino-oye-el-rio.wav,./stim/wavs/mexican_mismatch_declarative-narrow-focus_El-nino-oye-el-rio.wav,./stim/wavs/peruvian_mismatch_declarative-narrow-focus_El-nino-oye-el-rio.wav,./stim/wavs/puertorican_mismatch_declarative-narrow-focus_El-nino-oye-el-rio.wav
,,,,,,,5e902a581baf783237598a3c,602ab2f3ccc37d12d58ba79b,602b202d24ce4c233dfd0f8b,Mexicano,No,2021-02-15_19h32.45.710,empathy_intonation_perc_sp,2020.2.10,Win32,60,,,,,,,,,,1,castilian,1,1,1.56117,0,38,38,29,1,30,./stim/wavs/andalusian_match_interrogative-total-yn_Maria-bebe-el-vino.wav,./stim/wavs/argentine_match_interrogative-total-yn_Maria-bebe-el-vino.wav,./stim/wavs/castilian_match_interrogative-total-yn_Maria-bebe-el-vino.wav,./stim/wavs/chilean_match_interrogative-total-yn_Maria-bebe-el-vino.wav,./stim/wavs/cuban_match_interrogative-total-yn_Maria-bebe-el-vino.wav,./stim/wavs/mexican_match_interrogative-total-yn_Maria-bebe-el-vino.wav,./stim/wavs/peruvian_match_interrogative-total-yn_Maria-bebe-el-vino.wav,./stim/wavs/puertorican_match_interrogative-total-yn_Maria-bebe-el-vino.wav
,,,,,,,5e902a581baf783237598a3c,602ab2f3ccc37d12d58ba79b,602b202d24ce4c233dfd0f8b,Mexicano,No,2021-02-15_19h32.45.710,empathy_intonation_perc_sp,2020.2.10,Win32,60,,,,,,,,,,1,puertorican,1,1,2.066355,0,39,39,55,1,56,./stim/wavs/andalusian_mismatch_interrogative-partial-wh_Por-que-vivia-en-Paris.wav,./stim/wavs/argentine_mismatch_interrogative-partial-wh_Por-que-vivia-en-Paris.wav,./stim/wavs/castilian_mismatch_interrogative-partial-wh_Por-que-vivia-en-Paris.wav,./stim/wavs/chilean_mismatch_interrogative-partial-wh_Por-que-vivia-en-Paris.wav,./stim/wavs/cuban_mismatch_interrogative-partial-wh_Por-que-vivia-en-Paris.wav,./stim/wavs/mexican_mismatch_interrogative-partial-wh_Por-que-vivia-en-Paris.wav,./stim/wavs/peruvian_mismatch_interrogative-partial-wh_Por-que-vivia-en-Paris.wav,./stim/wavs/puertorican_mismatch_interrogative-partial-wh_Por-que-vivia-en-Paris.wav
,,,,,,,5e902a581baf783237598a3c,602ab2f3ccc37d12d58ba79b,602b202d24ce4c233dfd0f8b,Mexicano,No,2021-02-15_19h32.45.710,empathy_intonation_perc_sp,2020.2.10,Win32,60,,,,,,,,,,1,argentine,1,1,1.70348,0,40,40,57,1,58,./stim/wavs/andalusian_mismatch_interrogative-total-yn_El-hombre-mira-la-luna.wav,./stim/wavs/argentine_mismatch_interrogative-total-yn_El-hombre-mira-la-luna.wav,./stim/wavs/castilian_mismatch_interrogative-total-yn_El-hombre-mira-la-luna.wav,./stim/wavs/chilean_mismatch_interrogative-total-yn_El-hombre-mira-la-luna.wav,./stim/wavs/cuban_mismatch_interrogative-total-yn_El-hombre-mira-la-luna.wav,./stim/wavs/mexican_mismatch_interrogative-total-yn_El-hombre-mira-la-luna.wav,./stim/wavs/peruvian_mismatch_interrogative-total-yn_El-hombre-mira-la-luna.wav,./stim/wavs/puertorican_mismatch_interrogative-total-yn_El-hombre-mira-la-luna.wav
,,,,,,,5e902a581baf783237598a3c,602ab2f3ccc37d12d58ba79b,602b202d24ce4c233dfd0f8b,Mexicano,No,2021-02-15_19h32.45.710,empathy_intonation_perc_sp,2020.2.10,Win32,60,,,,,,,,,,0,puertorican,0,1,1.500885,0,41,41,45,1,46,./stim/wavs/andalusian_mismatch_declarative-narrow-focus_Mi-madre-come-la-fruta.wav,./stim/wavs/argentine_mismatch_declarative-narrow-focus_Mi-madre-come-la-fruta.wav,./stim/wavs/castilian_mismatch_declarative-narrow-focus_Mi-madre-come-la-fruta.wav,./stim/wavs/chilean_mismatch_declarative-narrow-focus_Mi-madre-come-la-fruta.wav,./stim/wavs/cuban_mismatch_declarative-narrow-focus_Mi-madre-come-la-fruta.wav,./stim/wavs/mexican_mismatch_declarative-narrow-focus_Mi-madre-come-la-fruta.wav,./stim/wavs/peruvian_mismatch_declarative-narrow-focus_Mi-madre-come-la-fruta.wav,./stim/wavs/puertorican_mismatch_declarative-narrow-focus_Mi-madre-come-la-fruta.wav
,,,,,,,5e902a581baf783237598a3c,602ab2f3ccc37d12d58ba79b,602b202d24ce4c233dfd0f8b,Mexicano,No,2021-02-15_19h32.45.710,empathy_intonation_perc_sp,2020.2.10,Win32,60,,,,,,,,,,0,puertorican,0,1,1.478015,0,42,42,43,1,44,./stim/wavs/andalusian_mismatch_declarative-narrow-focus_La-maestra-vive-en-Paris.wav,./stim/wavs/argentine_mismatch_declarative-narrow-focus_La-maestra-vive-en-Paris.wav,./stim/wavs/castilian_mismatch_declarative-narrow-focus_La-maestra-vive-en-Paris.wav,./stim/wavs/chilean_mismatch_declarative-narrow-focus_La-maestra-vive-en-Paris.wav,./stim/wavs/cuban_mismatch_declarative-narrow-focus_La-maestra-vive-en-Paris.wav,./stim/wavs/mexican_mismatch_declarative-narrow-focus_La-maestra-vive-en-Paris.wav,./stim/wavs/peruvian_mismatch_declarative-narrow-focus_La-maestra-vive-en-Paris.wav,./stim/wavs/puertorican_mismatch_declarative-narrow-focus_La-maestra-vive-en-Paris.wav
,,,,,,,5e902a581baf783237598a3c,602ab2f3ccc37d12d58ba79b,602b202d24ce4c233dfd0f8b,Mexicano,No,2021-02-15_19h32.45.710,empathy_intonation_perc_sp,2020.2.10,Win32,60,,,,,,,,,,1,cuban,1,1,2.12748,0,43,43,23,1,24,./stim/wavs/andalusian_match_interrogative-partial-wh_Por-que-iba-a-Bolivia.wav,./stim/wavs/argentine_match_interrogative-partial-wh_Por-que-iba-a-Bolivia.wav,./stim/wavs/castilian_match_interrogative-partial-wh_Por-que-iba-a-Bolivia.wav,./stim/wavs/chilean_match_interrogative-partial-wh_Por-que-iba-a-Bolivia.wav,./stim/wavs/cuban_match_interrogative-partial-wh_Por-que-iba-a-Bolivia.wav,./stim/wavs/mexican_match_interrogative-partial-wh_Por-que-iba-a-Bolivia.wav,./stim/wavs/peruvian_match_interrogative-partial-wh_Por-que-iba-a-Bolivia.wav,./stim/wavs/puertorican_match_interrogative-partial-wh_Por-que-iba-a-Bolivia.wav
,,,,,,,5e902a581baf783237598a3c,602ab2f3ccc37d12d58ba79b,602b202d24ce4c233dfd0f8b,Mexicano,No,2021-02-15_19h32.45.710,empathy_intonation_perc_sp,2020.2.10,Win32,60,,,,,,,,,,0,cuban,0,1,1.86268,0,44,44,46,1,47,./stim/wavs/andalusian_mismatch_declarative-narrow-focus_Mi-novio-viene-del-lago.wav,./stim/wavs/argentine_mismatch_declarative-narrow-focus_Mi-novio-viene-del-lago.wav,./stim/wavs/castilian_mismatch_declarative-narrow-focus_Mi-novio-viene-del-lago.wav,./stim/wavs/chilean_mismatch_declarative-narrow-focus_Mi-novio-viene-del-lago.wav,./stim/wavs/cuban_mismatch_declarative-narrow-focus_Mi-novio-viene-del-lago.wav,./stim/wavs/mexican_mismatch_declarative-narrow-focus_Mi-novio-viene-del-lago.wav,./stim/wavs/peruvian_mismatch_declarative-narrow-focus_Mi-novio-viene-del-lago.wav,./stim/wavs/puertorican_mismatch_declarative-narrow-focus_Mi-novio-viene-del-lago.wav
,,,,,,,5e902a581baf783237598a3c,602ab2f3ccc37d12d58ba79b,602b202d24ce4c233dfd0f8b,Mexicano,No,2021-02-15_19h32.45.710,empathy_intonation_perc_sp,2020.2.10,Win32,60,,,,,,,,,,1,argentine,1,1,1.91732,0,45,45,18,1,19,./stim/wavs/andalusian_match_interrogative-partial-wh_Cuando-lleva-el-abrigo.wav,./stim/wavs/argentine_match_interrogative-partial-wh_Cuando-lleva-el-abrigo.wav,./stim/wavs/castilian_match_interrogative-partial-wh_Cuando-lleva-el-abrigo.wav,./stim/wavs/chilean_match_interrogative-partial-wh_Cuando-lleva-el-abrigo.wav,./stim/wavs/cuban_match_interrogative-partial-wh_Cuando-lleva-el-abrigo.wav,./stim/wavs/mexican_match_interrogative-partial-wh_Cuando-lleva-el-abrigo.wav,./stim/wavs/peruvian_match_interrogative-partial-wh_Cuando-lleva-el-abrigo.wav,./stim/wavs/puertorican_match_interrogative-partial-wh_Cuando-lleva-el-abrigo.wav
,,,,,,,5e902a581baf783237598a3c,602ab2f3ccc37d12d58ba79b,602b202d24ce4c233dfd0f8b,Mexicano,No,2021-02-15_19h32.45.710,empathy_intonation_perc_sp,2020.2.10,Win32,60,,,,,,,,,,1,castilian,1,1,2.251505,0,46,46,26,1,27,./stim/wavs/andalusian_match_interrogative-total-yn_David-leia-el-libro.wav,./stim/wavs/argentine_match_interrogative-total-yn_David-leia-el-libro.wav,./stim/wavs/castilian_match_interrogative-total-yn_David-leia-el-libro.wav,./stim/wavs/chilean_match_interrogative-total-yn_David-leia-el-libro.wav,./stim/wavs/cuban_match_interrogative-total-yn_David-leia-el-libro.wav,./stim/wavs/mexican_match_interrogative-total-yn_David-leia-el-libro.wav,./stim/wavs/peruvian_match_interrogative-total-yn_David-leia-el-libro.wav,./stim/wavs/puertorican_match_interrogative-total-yn_David-leia-el-libro.wav
,,,,,,,5e902a581baf783237598a3c,602ab2f3ccc37d12d58ba79b,602b202d24ce4c233dfd0f8b,Mexicano,No,2021-02-15_19h32.45.710,empathy_intonation_perc_sp,2020.2.10,Win32,60,,,,,,,,,,1,chilean,1,1,1.401235,0,47,47,25,1,26,./stim/wavs/andalusian_match_interrogative-total-yn_Daniel-iba-a-Bolivia.wav,./stim/wavs/argentine_match_interrogative-total-yn_Daniel-iba-a-Bolivia.wav,./stim/wavs/castilian_match_interrogative-total-yn_Daniel-iba-a-Bolivia.wav,./stim/wavs/chilean_match_interrogative-total-yn_Daniel-iba-a-Bolivia.wav,./stim/wavs/cuban_match_interrogative-total-yn_Daniel-iba-a-Bolivia.wav,./stim/wavs/mexican_match_interrogative-total-yn_Daniel-iba-a-Bolivia.wav,./stim/wavs/peruvian_match_interrogative-total-yn_Daniel-iba-a-Bolivia.wav,./stim/wavs/puertorican_match_interrogative-total-yn_Daniel-iba-a-Bolivia.wav
,,,,,,,5e902a581baf783237598a3c,602ab2f3ccc37d12d58ba79b,602b202d24ce4c233dfd0f8b,Mexicano,No,2021-02-15_19h32.45.710,empathy_intonation_perc_sp,2020.2.10,Win32,60,,,,,,,,,,0,mexican,0,1,1.351855,0,48,48,13,1,14,./stim/wavs/andalusian_match_declarative-narrow-focus_Maria-bebe-el-vino.wav,./stim/wavs/argentine_match_declarative-narrow-focus_Maria-bebe-el-vino.wav,./stim/wavs/castilian_match_declarative-narrow-focus_Maria-bebe-el-vino.wav,./stim/wavs/chilean_match_declarative-narrow-focus_Maria-bebe-el-vino.wav,./stim/wavs/cuban_match_declarative-narrow-focus_Maria-bebe-el-vino.wav,./stim/wavs/mexican_match_declarative-narrow-focus_Maria-bebe-el-vino.wav,./stim/wavs/peruvian_match_declarative-narrow-focus_Maria-bebe-el-vino.wav,./stim/wavs/puertorican_match_declarative-narrow-focus_Maria-bebe-el-vino.wav
,,,,,,,5e902a581baf783237598a3c,602ab2f3ccc37d12d58ba79b,602b202d24ce4c233dfd0f8b,Mexicano,No,2021-02-15_19h32.45.710,empathy_intonation_perc_sp,2020.2.10,Win32,60,,,,,,,,,,1,castilian,1,1,1.611735,0,49,49,16,1,17,./stim/wavs/andalusian_match_interrogative-partial-wh_Cuando-bebia-el-vino.wav,./stim/wavs/argentine_match_interrogative-partial-wh_Cuando-bebia-el-vino.wav,./stim/wavs/castilian_match_interrogative-partial-wh_Cuando-bebia-el-vino.wav,./stim/wavs/chilean_match_interrogative-partial-wh_Cuando-bebia-el-vino.wav,./stim/wavs/cuban_match_interrogative-partial-wh_Cuando-bebia-el-vino.wav,./stim/wavs/mexican_match_interrogative-partial-wh_Cuando-bebia-el-vino.wav,./stim/wavs/peruvian_match_interrogative-partial-wh_Cuando-bebia-el-vino.wav,./stim/wavs/puertorican_match_interrogative-partial-wh_Cuando-bebia-el-vino.wav
,,,,,,,5e902a581baf783237598a3c,602ab2f3ccc37d12d58ba79b,602b202d24ce4c233dfd0f8b,Mexicano,No,2021-02-15_19h32.45.710,empathy_intonation_perc_sp,2020.2.10,Win32,60,,,,,,,,,,0,mexican,0,1,1.611845,0,50,50,15,1,16,./stim/wavs/andalusian_match_declarative-narrow-focus_Marta-abre-el-regalo.wav,./stim/wavs/argentine_match_declarative-narrow-focus_Marta-abre-el-regalo.wav,./stim/wavs/castilian_match_declarative-narrow-focus_Marta-abre-el-regalo.wav,./stim/wavs/chilean_match_declarative-narrow-focus_Marta-abre-el-regalo.wav,./stim/wavs/cuban_match_declarative-narrow-focus_Marta-abre-el-regalo.wav,./stim/wavs/mexican_match_declarative-narrow-focus_Marta-abre-el-regalo.wav,./stim/wavs/peruvian_match_declarative-narrow-focus_Marta-abre-el-regalo.wav,./stim/wavs/puertorican_match_declarative-narrow-focus_Marta-abre-el-regalo.wav
,,,,,,,5e902a581baf783237598a3c,602ab2f3ccc37d12d58ba79b,602b202d24ce4c233dfd0f8b,Mexicano,No,2021-02-15_19h32.45.710,empathy_intonation_perc_sp,2020.2.10,Win32,60,,,,,,,,,,1,andalusian,1,1,1.506685,0,51,51,24,1,25,./stim/wavs/andalusian_match_interrogative-total-yn_Ana-lleva-el-abrigo.wav,./stim/wavs/argentine_match_interrogative-total-yn_Ana-lleva-el-abrigo.wav,./stim/wavs/castilian_match_interrogative-total-yn_Ana-lleva-el-abrigo.wav,./stim/wavs/chilean_match_interrogative-total-yn_Ana-lleva-el-abrigo.wav,./stim/wavs/cuban_match_interrogative-total-yn_Ana-lleva-el-abrigo.wav,./stim/wavs/mexican_match_interrogative-total-yn_Ana-lleva-el-abrigo.wav,./stim/wavs/peruvian_match_interrogative-total-yn_Ana-lleva-el-abrigo.wav,./stim/wavs/puertorican_match_interrogative-total-yn_Ana-lleva-el-abrigo.wav
,,,,,,,5e902a581baf783237598a3c,602ab2f3ccc37d12d58ba79b,602b202d24ce4c233dfd0f8b,Mexicano,No,2021-02-15_19h32.45.710,empathy_intonation_perc_sp,2020.2.10,Win32,60,,,,,,,,,,0,cuban,0,1,1.546535,0,52,52,11,1,12,./stim/wavs/andalusian_match_declarative-narrow-focus_Emilio-ama-la-marcha.wav,./stim/wavs/argentine_match_declarative-narrow-focus_Emilio-ama-la-marcha.wav,./stim/wavs/castilian_match_declarative-narrow-focus_Emilio-ama-la-marcha.wav,./stim/wavs/chilean_match_declarative-narrow-focus_Emilio-ama-la-marcha.wav,./stim/wavs/cuban_match_declarative-narrow-focus_Emilio-ama-la-marcha.wav,./stim/wavs/mexican_match_declarative-narrow-focus_Emilio-ama-la-marcha.wav,./stim/wavs/peruvian_match_declarative-narrow-focus_Emilio-ama-la-marcha.wav,./stim/wavs/puertorican_match_declarative-narrow-focus_Emilio-ama-la-marcha.wav
,,,,,,,5e902a581baf783237598a3c,602ab2f3ccc37d12d58ba79b,602b202d24ce4c233dfd0f8b,Mexicano,No,2021-02-15_19h32.45.710,empathy_intonation_perc_sp,2020.2.10,Win32,60,,,,,,,,,,1,andalusian,1,1,2.051685,0,53,53,48,1,49,./stim/wavs/andalusian_mismatch_interrogative-partial-wh_Cuando-comia-la-fruta.wav,./stim/wavs/argentine_mismatch_interrogative-partial-wh_Cuando-comia-la-fruta.wav,./stim/wavs/castilian_mismatch_interrogative-partial-wh_Cuando-comia-la-fruta.wav,./stim/wavs/chilean_mismatch_interrogative-partial-wh_Cuando-comia-la-fruta.wav,./stim/wavs/cuban_mismatch_interrogative-partial-wh_Cuando-comia-la-fruta.wav,./stim/wavs/mexican_mismatch_interrogative-partial-wh_Cuando-comia-la-fruta.wav,./stim/wavs/peruvian_mismatch_interrogative-partial-wh_Cuando-comia-la-fruta.wav,./stim/wavs/puertorican_mismatch_interrogative-partial-wh_Cuando-comia-la-fruta.wav
,,,,,,,5e902a581baf783237598a3c,602ab2f3ccc37d12d58ba79b,602b202d24ce4c233dfd0f8b,Mexicano,No,2021-02-15_19h32.45.710,empathy_intonation_perc_sp,2020.2.10,Win32,60,,,,,,,,,,1,mexican,1,1,1.662865,0,54,54,56,1,57,./stim/wavs/andalusian_mismatch_interrogative-total-yn_El-bebe-comia-muy-bien.wav,./stim/wavs/argentine_mismatch_interrogative-total-yn_El-bebe-comia-muy-bien.wav,./stim/wavs/castilian_mismatch_interrogative-total-yn_El-bebe-comia-muy-bien.wav,./stim/wavs/chilean_mismatch_interrogative-total-yn_El-bebe-comia-muy-bien.wav,./stim/wavs/cuban_mismatch_interrogative-total-yn_El-bebe-comia-muy-bien.wav,./stim/wavs/mexican_mismatch_interrogative-total-yn_El-bebe-comia-muy-bien.wav,./stim/wavs/peruvian_mismatch_interrogative-total-yn_El-bebe-comia-muy-bien.wav,./stim/wavs/puertorican_mismatch_interrogative-total-yn_El-bebe-comia-muy-bien.wav
,,,,,,,5e902a581baf783237598a3c,602ab2f3ccc37d12d58ba79b,602b202d24ce4c233dfd0f8b,Mexicano,No,2021-02-15_19h32.45.710,empathy_intonation_perc_sp,2020.2.10,Win32,60,,,,,,,,,,1,puertorican,1,1,2.253395,0,55,55,30,1,31,./stim/wavs/andalusian_match_interrogative-total-yn_Mariano-habla-del-tiempo.wav,./stim/wavs/argentine_match_interrogative-total-yn_Mariano-habla-del-tiempo.wav,./stim/wavs/castilian_match_interrogative-total-yn_Mariano-habla-del-tiempo.wav,./stim/wavs/chilean_match_interrogative-total-yn_Mariano-habla-del-tiempo.wav,./stim/wavs/cuban_match_interrogative-total-yn_Mariano-habla-del-tiempo.wav,./stim/wavs/mexican_match_interrogative-total-yn_Mariano-habla-del-tiempo.wav,./stim/wavs/peruvian_match_interrogative-total-yn_Mariano-habla-del-tiempo.wav,./stim/wavs/puertorican_match_interrogative-total-yn_Mariano-habla-del-tiempo.wav
,,,,,,,5e902a581baf783237598a3c,602ab2f3ccc37d12d58ba79b,602b202d24ce4c233dfd0f8b,Mexicano,No,2021-02-15_19h32.45.710,empathy_intonation_perc_sp,2020.2.10,Win32,60,,,,,,,,,,0,argentine,0,1,4.867075,0,56,56,1,1,2,./stim/wavs/andalusian_match_declarative-broad-focus_Daniel-iba-a-Bolivia.wav,./stim/wavs/argentine_match_declarative-broad-focus_Daniel-iba-a-Bolivia.wav,./stim/wavs/castilian_match_declarative-broad-focus_Daniel-iba-a-Bolivia.wav,./stim/wavs/chilean_match_declarative-broad-focus_Daniel-iba-a-Bolivia.wav,./stim/wavs/cuban_match_declarative-broad-focus_Daniel-iba-a-Bolivia.wav,./stim/wavs/mexican_match_declarative-broad-focus_Daniel-iba-a-Bolivia.wav,./stim/wavs/peruvian_match_declarative-broad-focus_Daniel-iba-a-Bolivia.wav,./stim/wavs/puertorican_match_declarative-broad-focus_Daniel-iba-a-Bolivia.wav
,,,,,,,5e902a581baf783237598a3c,602ab2f3ccc37d12d58ba79b,602b202d24ce4c233dfd0f8b,Mexicano,No,2021-02-15_19h32.45.710,empathy_intonation_perc_sp,2020.2.10,Win32,60,,,,,,,,,,1,mexican,1,1,1.312125,0,57,57,49,1,50,./stim/wavs/andalusian_mismatch_interrogative-partial-wh_Cuando-lavaba-el-plato.wav,./stim/wavs/argentine_mismatch_interrogative-partial-wh_Cuando-lavaba-el-plato.wav,./stim/wavs/castilian_mismatch_interrogative-partial-wh_Cuando-lavaba-el-plato.wav,./stim/wavs/chilean_mismatch_interrogative-partial-wh_Cuando-lavaba-el-plato.wav,./stim/wavs/cuban_mismatch_interrogative-partial-wh_Cuando-lavaba-el-plato.wav,./stim/wavs/mexican_mismatch_interrogative-partial-wh_Cuando-lavaba-el-plato.wav,./stim/wavs/peruvian_mismatch_interrogative-partial-wh_Cuando-lavaba-el-plato.wav,./stim/wavs/puertorican_mismatch_interrogative-partial-wh_Cuando-lavaba-el-plato.wav
,,,,,,,5e902a581baf783237598a3c,602ab2f3ccc37d12d58ba79b,602b202d24ce4c233dfd0f8b,Mexicano,No,2021-02-15_19h32.45.710,empathy_intonation_perc_sp,2020.2.10,Win32,60,,,,,,,,,,1,puertorican,1,1,1.66292,0,58,58,28,1,29,./stim/wavs/andalusian_match_interrogative-total-yn_Manuela-vende-el-carro.wav,./stim/wavs/argentine_match_interrogative-total-yn_Manuela-vende-el-carro.wav,./stim/wavs/castilian_match_interrogative-total-yn_Manuela-vende-el-carro.wav,./stim/wavs/chilean_match_interrogative-total-yn_Manuela-vende-el-carro.wav,./stim/wavs/cuban_match_interrogative-total-yn_Manuela-vende-el-carro.wav,./stim/wavs/mexican_match_interrogative-total-yn_Manuela-vende-el-carro.wav,./stim/wavs/peruvian_match_interrogative-total-yn_Manuela-vende-el-carro.wav,./stim/wavs/puertorican_match_interrogative-total-yn_Manuela-vende-el-carro.wav
,,,,,,,5e902a581baf783237598a3c,602ab2f3ccc37d12d58ba79b,602b202d24ce4c233dfd0f8b,Mexicano,No,2021-02-15_19h32.45.710,empathy_intonation_perc_sp,2020.2.10,Win32,60,,,,,,,,,,0,cuban,0,1,2.52638,0,59,59,37,1,38,./stim/wavs/andalusian_mismatch_declarative-broad-focus_Mi-madre-come-la-fruta.wav,./stim/wavs/argentine_mismatch_declarative-broad-focus_Mi-madre-come-la-fruta.wav,./stim/wavs/castilian_mismatch_declarative-broad-focus_Mi-madre-come-la-fruta.wav,./stim/wavs/chilean_mismatch_declarative-broad-focus_Mi-madre-come-la-fruta.wav,./stim/wavs/cuban_mismatch_declarative-broad-focus_Mi-madre-come-la-fruta.wav,./stim/wavs/mexican_mismatch_declarative-broad-focus_Mi-madre-come-la-fruta.wav,./stim/wavs/peruvian_mismatch_declarative-broad-focus_Mi-madre-come-la-fruta.wav,./stim/wavs/puertorican_mismatch_declarative-broad-focus_Mi-madre-come-la-fruta.wav
,,,,,,,5e902a581baf783237598a3c,602ab2f3ccc37d12d58ba79b,602b202d24ce4c233dfd0f8b,Mexicano,No,2021-02-15_19h32.45.710,empathy_intonation_perc_sp,2020.2.10,Win32,60,,,,,,,,,,0,andalusian,0,1,1.99414,0,60,60,34,1,35,./stim/wavs/andalusian_mismatch_declarative-broad-focus_El-nino-oye-el-rio.wav,./stim/wavs/argentine_mismatch_declarative-broad-focus_El-nino-oye-el-rio.wav,./stim/wavs/castilian_mismatch_declarative-broad-focus_El-nino-oye-el-rio.wav,./stim/wavs/chilean_mismatch_declarative-broad-focus_El-nino-oye-el-rio.wav,./stim/wavs/cuban_mismatch_declarative-broad-focus_El-nino-oye-el-rio.wav,./stim/wavs/mexican_mismatch_declarative-broad-focus_El-nino-oye-el-rio.wav,./stim/wavs/peruvian_mismatch_declarative-broad-focus_El-nino-oye-el-rio.wav,./stim/wavs/puertorican_mismatch_declarative-broad-focus_El-nino-oye-el-rio.wav
,,,,,,,5e902a581baf783237598a3c,602ab2f3ccc37d12d58ba79b,602b202d24ce4c233dfd0f8b,Mexicano,No,2021-02-15_19h32.45.710,empathy_intonation_perc_sp,2020.2.10,Win32,60,,,,,,,,,,0,cuban,0,1,1.46829,0,61,61,44,1,45,./stim/wavs/andalusian_mismatch_declarative-narrow-focus_La-nina-lava-el-plato.wav,./stim/wavs/argentine_mismatch_declarative-narrow-focus_La-nina-lava-el-plato.wav,./stim/wavs/castilian_mismatch_declarative-narrow-focus_La-nina-lava-el-plato.wav,./stim/wavs/chilean_mismatch_declarative-narrow-focus_La-nina-lava-el-plato.wav,./stim/wavs/cuban_mismatch_declarative-narrow-focus_La-nina-lava-el-plato.wav,./stim/wavs/mexican_mismatch_declarative-narrow-focus_La-nina-lava-el-plato.wav,./stim/wavs/peruvian_mismatch_declarative-narrow-focus_La-nina-lava-el-plato.wav,./stim/wavs/puertorican_mismatch_declarative-narrow-focus_La-nina-lava-el-plato.wav
,,,,,,,5e902a581baf783237598a3c,602ab2f3ccc37d12d58ba79b,602b202d24ce4c233dfd0f8b,Mexicano,No,2021-02-15_19h32.45.710,empathy_intonation_perc_sp,2020.2.10,Win32,60,,,,,,,,,,1,chilean,1,1,1.9216,0,62,62,22,1,23,./stim/wavs/andalusian_match_interrogative-partial-wh_Por-que-hablaba-del-agua.wav,./stim/wavs/argentine_match_interrogative-partial-wh_Por-que-hablaba-del-agua.wav,./stim/wavs/castilian_match_interrogative-partial-wh_Por-que-hablaba-del-agua.wav,./stim/wavs/chilean_match_interrogative-partial-wh_Por-que-hablaba-del-agua.wav,./stim/wavs/cuban_match_interrogative-partial-wh_Por-que-hablaba-del-agua.wav,./stim/wavs/mexican_match_interrogative-partial-wh_Por-que-hablaba-del-agua.wav,./stim/wavs/peruvian_match_interrogative-partial-wh_Por-que-hablaba-del-agua.wav,./stim/wavs/puertorican_match_interrogative-partial-wh_Por-que-hablaba-del-agua.wav
,,,,,,,5e902a581baf783237598a3c,602ab2f3ccc37d12d58ba79b,602b202d24ce4c233dfd0f8b,Mexicano,No,2021-02-15_19h32.45.710,empathy_intonation_perc_sp,2020.2.10,Win32,60,,,,,,,,,,0,mexican,0,1,1.66371,0,63,63,5,1,6,./stim/wavs/andalusian_match_declarative-broad-focus_Maria-bebe-el-vino.wav,./stim/wavs/argentine_match_declarative-broad-focus_Maria-bebe-el-vino.wav,./stim/wavs/castilian_match_declarative-broad-focus_Maria-bebe-el-vino.wav,./stim/wavs/chilean_match_declarative-broad-focus_Maria-bebe-el-vino.wav,./stim/wavs/cuban_match_declarative-broad-focus_Maria-bebe-el-vino.wav,./stim/wavs/mexican_match_declarative-broad-focus_Maria-bebe-el-vino.wav,./stim/wavs/peruvian_match_declarative-broad-focus_Maria-bebe-el-vino.wav,./stim/wavs/puertorican_match_declarative-broad-focus_Maria-bebe-el-vino.wav
