instructions_2afc_loop.thisRepN,instructions_2afc_loop.thisTrialN,instructions_2afc_loop.thisN,instructions_2afc_loop.thisIndex,instructions_2afc_loop.ran,instructions_text,continue_text,participant,study_id,session,Tu variedad del español*,¿Hablas con fluidez otra lengua (sí/no)?*,date,expName,psychopyVersion,OS,frameRate,key_resp_2afc_practice.keys,key_resp_2afc_practice.corr,key_resp_2afc_practice.rt,trials_2afc_practice_loop.thisRepN,trials_2afc_practice_loop.thisTrialN,trials_2afc_practice_loop.thisN,trials_2afc_practice_loop.thisIndex,trials_2afc_practice_loop.ran,path,correct_response,the_col,key_resp_2afc_trial.keys,key_resp_2afc_trial.corr,key_resp_2afc_trial.rt,trials_2afc_loop.thisRepN,trials_2afc_loop.thisTrialN,trials_2afc_loop.thisN,trials_2afc_loop.thisIndex,trials_2afc_loop.ran,item_num,andalusian,argentine,castilian,chilean,cuban,mexican,peruvian,puertorican
0,0,0,0,1,"En la siguiente tarea vas a escuchar una serie de frases cortas. 

  Vas a decidir si suenan como preguntas o no usando el teclado.",(presiona la barra espaciadora para continuar),5efb6e6f2730140ce8e7260c,602ab2f3ccc37d12d58ba79b,602b40d79070c126381cbf64,chileno,si,2021-02-16_00h50.44.585,empathy_intonation_perc_sp,2020.2.10,MacIntel,60,,,,,,,,,,,,,,,,,,,,,,,,,,,,
0,1,1,1,1,"Si crees que el enunciado es una pregunta, teclea '1' (Sí) y si crees que 
  no es una pregunta teclea '0' (no).

  Vamos a practicar...",(presiona la barra espaciadora para continuar),5efb6e6f2730140ce8e7260c,602ab2f3ccc37d12d58ba79b,602b40d79070c126381cbf64,chileno,si,2021-02-16_00h50.44.585,empathy_intonation_perc_sp,2020.2.10,MacIntel,60,,,,,,,,,,,,,,,,,,,,,,,,,,,,
,,,,,,,5efb6e6f2730140ce8e7260c,602ab2f3ccc37d12d58ba79b,602b40d79070c126381cbf64,chileno,si,2021-02-16_00h50.44.585,empathy_intonation_perc_sp,2020.2.10,MacIntel,60,1,1,2.536,0,0,0,2,1,./stim/wavs/chilean_question_filler_Mi-padre-cantaba-bien.wav,1,,,,,,,,,,,,,,,,,,
,,,,,,,5efb6e6f2730140ce8e7260c,602ab2f3ccc37d12d58ba79b,602b40d79070c126381cbf64,chileno,si,2021-02-16_00h50.44.585,empathy_intonation_perc_sp,2020.2.10,MacIntel,60,0,1,2.088925,0,1,1,4,1,./stim/wavs/cuban_statement_filler_Cocinabas-por-la-noche.wav,0,,,,,,,,,,,,,,,,,,
,,,,,,,5efb6e6f2730140ce8e7260c,602ab2f3ccc37d12d58ba79b,602b40d79070c126381cbf64,chileno,si,2021-02-16_00h50.44.585,empathy_intonation_perc_sp,2020.2.10,MacIntel,60,0,1,2.250235,0,2,2,7,1,./stim/wavs/puertorican_statement_filler_La-nina-pinta-con-su-amiga.wav,0,,,,,,,,,,,,,,,,,,
,,,,,,,5efb6e6f2730140ce8e7260c,602ab2f3ccc37d12d58ba79b,602b40d79070c126381cbf64,chileno,si,2021-02-16_00h50.44.585,empathy_intonation_perc_sp,2020.2.10,MacIntel,60,1,1,2.01444,0,3,3,3,1,./stim/wavs/mexican_question_filler_Felipe-no-tiene-contrasena.wav,1,,,,,,,,,,,,,,,,,,
,,,,,,,5efb6e6f2730140ce8e7260c,602ab2f3ccc37d12d58ba79b,602b40d79070c126381cbf64,chileno,si,2021-02-16_00h50.44.585,empathy_intonation_perc_sp,2020.2.10,MacIntel,60,0,1,2.25199,0,4,4,6,1,./stim/wavs/peruvian_statement_filler_El-nino-habla-con-su-madre.wav,0,,,,,,,,,,,,,,,,,,
,,,,,,,5efb6e6f2730140ce8e7260c,602ab2f3ccc37d12d58ba79b,602b40d79070c126381cbf64,chileno,si,2021-02-16_00h50.44.585,empathy_intonation_perc_sp,2020.2.10,MacIntel,60,0,1,1.92247,0,5,5,5,1,./stim/wavs/andalusian_statement_filler_Alberto-nunca-se-afeita.wav,0,,,,,,,,,,,,,,,,,,
,,,,,,,5efb6e6f2730140ce8e7260c,602ab2f3ccc37d12d58ba79b,602b40d79070c126381cbf64,chileno,si,2021-02-16_00h50.44.585,empathy_intonation_perc_sp,2020.2.10,MacIntel,60,1,1,1.78384,0,6,6,0,1,./stim/wavs/castilian_question_filler_Mi-esposo-conoce-al-chico.wav,1,,,,,,,,,,,,,,,,,,
,,,,,,,5efb6e6f2730140ce8e7260c,602ab2f3ccc37d12d58ba79b,602b40d79070c126381cbf64,chileno,si,2021-02-16_00h50.44.585,empathy_intonation_perc_sp,2020.2.10,MacIntel,60,1,1,1.27974,0,7,7,1,1,./stim/wavs/argentine_question_filler_Mi-vecino-habla-mucho.wav,1,,,,,,,,,,,,,,,,,,
,,,,,,,5efb6e6f2730140ce8e7260c,602ab2f3ccc37d12d58ba79b,602b40d79070c126381cbf64,chileno,si,2021-02-16_00h50.44.585,empathy_intonation_perc_sp,2020.2.10,MacIntel,60,,,,,,,,,,0,mexican,0,1,1.64659,0,0,0,41,1,42,./stim/wavs/andalusian_mismatch_declarative-narrow-focus_El-hombre-mira-la-luna.wav,./stim/wavs/argentine_mismatch_declarative-narrow-focus_El-hombre-mira-la-luna.wav,./stim/wavs/castilian_mismatch_declarative-narrow-focus_El-hombre-mira-la-luna.wav,./stim/wavs/chilean_mismatch_declarative-narrow-focus_El-hombre-mira-la-luna.wav,./stim/wavs/cuban_mismatch_declarative-narrow-focus_El-hombre-mira-la-luna.wav,./stim/wavs/mexican_mismatch_declarative-narrow-focus_El-hombre-mira-la-luna.wav,./stim/wavs/peruvian_mismatch_declarative-narrow-focus_El-hombre-mira-la-luna.wav,./stim/wavs/puertorican_mismatch_declarative-narrow-focus_El-hombre-mira-la-luna.wav
,,,,,,,5efb6e6f2730140ce8e7260c,602ab2f3ccc37d12d58ba79b,602b40d79070c126381cbf64,chileno,si,2021-02-16_00h50.44.585,empathy_intonation_perc_sp,2020.2.10,MacIntel,60,,,,,,,,,,1,argentine,0,0,3.6308,0,1,1,54,1,55,./stim/wavs/andalusian_mismatch_interrogative-partial-wh_Por-que-venia-del-lago.wav,./stim/wavs/argentine_mismatch_interrogative-partial-wh_Por-que-venia-del-lago.wav,./stim/wavs/castilian_mismatch_interrogative-partial-wh_Por-que-venia-del-lago.wav,./stim/wavs/chilean_mismatch_interrogative-partial-wh_Por-que-venia-del-lago.wav,./stim/wavs/cuban_mismatch_interrogative-partial-wh_Por-que-venia-del-lago.wav,./stim/wavs/mexican_mismatch_interrogative-partial-wh_Por-que-venia-del-lago.wav,./stim/wavs/peruvian_mismatch_interrogative-partial-wh_Por-que-venia-del-lago.wav,./stim/wavs/puertorican_mismatch_interrogative-partial-wh_Por-que-venia-del-lago.wav
,,,,,,,5efb6e6f2730140ce8e7260c,602ab2f3ccc37d12d58ba79b,602b40d79070c126381cbf64,chileno,si,2021-02-16_00h50.44.585,empathy_intonation_perc_sp,2020.2.10,MacIntel,60,,,,,,,,,,0,andalusian,0,1,1.612335,0,2,2,43,1,44,./stim/wavs/andalusian_mismatch_declarative-narrow-focus_La-maestra-vive-en-Paris.wav,./stim/wavs/argentine_mismatch_declarative-narrow-focus_La-maestra-vive-en-Paris.wav,./stim/wavs/castilian_mismatch_declarative-narrow-focus_La-maestra-vive-en-Paris.wav,./stim/wavs/chilean_mismatch_declarative-narrow-focus_La-maestra-vive-en-Paris.wav,./stim/wavs/cuban_mismatch_declarative-narrow-focus_La-maestra-vive-en-Paris.wav,./stim/wavs/mexican_mismatch_declarative-narrow-focus_La-maestra-vive-en-Paris.wav,./stim/wavs/peruvian_mismatch_declarative-narrow-focus_La-maestra-vive-en-Paris.wav,./stim/wavs/puertorican_mismatch_declarative-narrow-focus_La-maestra-vive-en-Paris.wav
,,,,,,,5efb6e6f2730140ce8e7260c,602ab2f3ccc37d12d58ba79b,602b40d79070c126381cbf64,chileno,si,2021-02-16_00h50.44.585,empathy_intonation_perc_sp,2020.2.10,MacIntel,60,,,,,,,,,,0,chilean,0,1,1.417625,0,3,3,33,1,34,./stim/wavs/andalusian_mismatch_declarative-broad-focus_El-hombre-mira-la-luna.wav,./stim/wavs/argentine_mismatch_declarative-broad-focus_El-hombre-mira-la-luna.wav,./stim/wavs/castilian_mismatch_declarative-broad-focus_El-hombre-mira-la-luna.wav,./stim/wavs/chilean_mismatch_declarative-broad-focus_El-hombre-mira-la-luna.wav,./stim/wavs/cuban_mismatch_declarative-broad-focus_El-hombre-mira-la-luna.wav,./stim/wavs/mexican_mismatch_declarative-broad-focus_El-hombre-mira-la-luna.wav,./stim/wavs/peruvian_mismatch_declarative-broad-focus_El-hombre-mira-la-luna.wav,./stim/wavs/puertorican_mismatch_declarative-broad-focus_El-hombre-mira-la-luna.wav
,,,,,,,5efb6e6f2730140ce8e7260c,602ab2f3ccc37d12d58ba79b,602b40d79070c126381cbf64,chileno,si,2021-02-16_00h50.44.585,empathy_intonation_perc_sp,2020.2.10,MacIntel,60,,,,,,,,,,0,peruvian,0,1,1.83403,0,4,4,46,1,47,./stim/wavs/andalusian_mismatch_declarative-narrow-focus_Mi-novio-viene-del-lago.wav,./stim/wavs/argentine_mismatch_declarative-narrow-focus_Mi-novio-viene-del-lago.wav,./stim/wavs/castilian_mismatch_declarative-narrow-focus_Mi-novio-viene-del-lago.wav,./stim/wavs/chilean_mismatch_declarative-narrow-focus_Mi-novio-viene-del-lago.wav,./stim/wavs/cuban_mismatch_declarative-narrow-focus_Mi-novio-viene-del-lago.wav,./stim/wavs/mexican_mismatch_declarative-narrow-focus_Mi-novio-viene-del-lago.wav,./stim/wavs/peruvian_mismatch_declarative-narrow-focus_Mi-novio-viene-del-lago.wav,./stim/wavs/puertorican_mismatch_declarative-narrow-focus_Mi-novio-viene-del-lago.wav
,,,,,,,5efb6e6f2730140ce8e7260c,602ab2f3ccc37d12d58ba79b,602b40d79070c126381cbf64,chileno,si,2021-02-16_00h50.44.585,empathy_intonation_perc_sp,2020.2.10,MacIntel,60,,,,,,,,,,0,castilian,0,1,1.967635,0,5,5,6,1,7,./stim/wavs/andalusian_match_declarative-broad-focus_Mariano-habla-del-tiempo.wav,./stim/wavs/argentine_match_declarative-broad-focus_Mariano-habla-del-tiempo.wav,./stim/wavs/castilian_match_declarative-broad-focus_Mariano-habla-del-tiempo.wav,./stim/wavs/chilean_match_declarative-broad-focus_Mariano-habla-del-tiempo.wav,./stim/wavs/cuban_match_declarative-broad-focus_Mariano-habla-del-tiempo.wav,./stim/wavs/mexican_match_declarative-broad-focus_Mariano-habla-del-tiempo.wav,./stim/wavs/peruvian_match_declarative-broad-focus_Mariano-habla-del-tiempo.wav,./stim/wavs/puertorican_match_declarative-broad-focus_Mariano-habla-del-tiempo.wav
,,,,,,,5efb6e6f2730140ce8e7260c,602ab2f3ccc37d12d58ba79b,602b40d79070c126381cbf64,chileno,si,2021-02-16_00h50.44.585,empathy_intonation_perc_sp,2020.2.10,MacIntel,60,,,,,,,,,,0,puertorican,0,1,1.486985,0,6,6,36,1,37,./stim/wavs/andalusian_mismatch_declarative-broad-focus_La-nina-lava-el-plato.wav,./stim/wavs/argentine_mismatch_declarative-broad-focus_La-nina-lava-el-plato.wav,./stim/wavs/castilian_mismatch_declarative-broad-focus_La-nina-lava-el-plato.wav,./stim/wavs/chilean_mismatch_declarative-broad-focus_La-nina-lava-el-plato.wav,./stim/wavs/cuban_mismatch_declarative-broad-focus_La-nina-lava-el-plato.wav,./stim/wavs/mexican_mismatch_declarative-broad-focus_La-nina-lava-el-plato.wav,./stim/wavs/peruvian_mismatch_declarative-broad-focus_La-nina-lava-el-plato.wav,./stim/wavs/puertorican_mismatch_declarative-broad-focus_La-nina-lava-el-plato.wav
,,,,,,,5efb6e6f2730140ce8e7260c,602ab2f3ccc37d12d58ba79b,602b40d79070c126381cbf64,chileno,si,2021-02-16_00h50.44.585,empathy_intonation_perc_sp,2020.2.10,MacIntel,60,,,,,,,,,,0,andalusian,0,1,1.800575,0,7,7,1,1,2,./stim/wavs/andalusian_match_declarative-broad-focus_Daniel-iba-a-Bolivia.wav,./stim/wavs/argentine_match_declarative-broad-focus_Daniel-iba-a-Bolivia.wav,./stim/wavs/castilian_match_declarative-broad-focus_Daniel-iba-a-Bolivia.wav,./stim/wavs/chilean_match_declarative-broad-focus_Daniel-iba-a-Bolivia.wav,./stim/wavs/cuban_match_declarative-broad-focus_Daniel-iba-a-Bolivia.wav,./stim/wavs/mexican_match_declarative-broad-focus_Daniel-iba-a-Bolivia.wav,./stim/wavs/peruvian_match_declarative-broad-focus_Daniel-iba-a-Bolivia.wav,./stim/wavs/puertorican_match_declarative-broad-focus_Daniel-iba-a-Bolivia.wav
,,,,,,,5efb6e6f2730140ce8e7260c,602ab2f3ccc37d12d58ba79b,602b40d79070c126381cbf64,chileno,si,2021-02-16_00h50.44.585,empathy_intonation_perc_sp,2020.2.10,MacIntel,60,,,,,,,,,,1,andalusian,0,0,1.955555,0,8,8,22,1,23,./stim/wavs/andalusian_match_interrogative-partial-wh_Por-que-hablaba-del-agua.wav,./stim/wavs/argentine_match_interrogative-partial-wh_Por-que-hablaba-del-agua.wav,./stim/wavs/castilian_match_interrogative-partial-wh_Por-que-hablaba-del-agua.wav,./stim/wavs/chilean_match_interrogative-partial-wh_Por-que-hablaba-del-agua.wav,./stim/wavs/cuban_match_interrogative-partial-wh_Por-que-hablaba-del-agua.wav,./stim/wavs/mexican_match_interrogative-partial-wh_Por-que-hablaba-del-agua.wav,./stim/wavs/peruvian_match_interrogative-partial-wh_Por-que-hablaba-del-agua.wav,./stim/wavs/puertorican_match_interrogative-partial-wh_Por-que-hablaba-del-agua.wav
,,,,,,,5efb6e6f2730140ce8e7260c,602ab2f3ccc37d12d58ba79b,602b40d79070c126381cbf64,chileno,si,2021-02-16_00h50.44.585,empathy_intonation_perc_sp,2020.2.10,MacIntel,60,,,,,,,,,,0,peruvian,0,1,1.91772,0,9,9,37,1,38,./stim/wavs/andalusian_mismatch_declarative-broad-focus_Mi-madre-come-la-fruta.wav,./stim/wavs/argentine_mismatch_declarative-broad-focus_Mi-madre-come-la-fruta.wav,./stim/wavs/castilian_mismatch_declarative-broad-focus_Mi-madre-come-la-fruta.wav,./stim/wavs/chilean_mismatch_declarative-broad-focus_Mi-madre-come-la-fruta.wav,./stim/wavs/cuban_mismatch_declarative-broad-focus_Mi-madre-come-la-fruta.wav,./stim/wavs/mexican_mismatch_declarative-broad-focus_Mi-madre-come-la-fruta.wav,./stim/wavs/peruvian_mismatch_declarative-broad-focus_Mi-madre-come-la-fruta.wav,./stim/wavs/puertorican_mismatch_declarative-broad-focus_Mi-madre-come-la-fruta.wav
,,,,,,,5efb6e6f2730140ce8e7260c,602ab2f3ccc37d12d58ba79b,602b40d79070c126381cbf64,chileno,si,2021-02-16_00h50.44.585,empathy_intonation_perc_sp,2020.2.10,MacIntel,60,,,,,,,,,,1,chilean,1,1,1.41635,0,10,10,16,1,17,./stim/wavs/andalusian_match_interrogative-partial-wh_Cuando-bebia-el-vino.wav,./stim/wavs/argentine_match_interrogative-partial-wh_Cuando-bebia-el-vino.wav,./stim/wavs/castilian_match_interrogative-partial-wh_Cuando-bebia-el-vino.wav,./stim/wavs/chilean_match_interrogative-partial-wh_Cuando-bebia-el-vino.wav,./stim/wavs/cuban_match_interrogative-partial-wh_Cuando-bebia-el-vino.wav,./stim/wavs/mexican_match_interrogative-partial-wh_Cuando-bebia-el-vino.wav,./stim/wavs/peruvian_match_interrogative-partial-wh_Cuando-bebia-el-vino.wav,./stim/wavs/puertorican_match_interrogative-partial-wh_Cuando-bebia-el-vino.wav
,,,,,,,5efb6e6f2730140ce8e7260c,602ab2f3ccc37d12d58ba79b,602b40d79070c126381cbf64,chileno,si,2021-02-16_00h50.44.585,empathy_intonation_perc_sp,2020.2.10,MacIntel,60,,,,,,,,,,1,cuban,1,1,2.10083,0,11,11,29,1,30,./stim/wavs/andalusian_match_interrogative-total-yn_Maria-bebe-el-vino.wav,./stim/wavs/argentine_match_interrogative-total-yn_Maria-bebe-el-vino.wav,./stim/wavs/castilian_match_interrogative-total-yn_Maria-bebe-el-vino.wav,./stim/wavs/chilean_match_interrogative-total-yn_Maria-bebe-el-vino.wav,./stim/wavs/cuban_match_interrogative-total-yn_Maria-bebe-el-vino.wav,./stim/wavs/mexican_match_interrogative-total-yn_Maria-bebe-el-vino.wav,./stim/wavs/peruvian_match_interrogative-total-yn_Maria-bebe-el-vino.wav,./stim/wavs/puertorican_match_interrogative-total-yn_Maria-bebe-el-vino.wav
,,,,,,,5efb6e6f2730140ce8e7260c,602ab2f3ccc37d12d58ba79b,602b40d79070c126381cbf64,chileno,si,2021-02-16_00h50.44.585,empathy_intonation_perc_sp,2020.2.10,MacIntel,60,,,,,,,,,,0,argentine,0,1,2.189695,0,12,12,45,1,46,./stim/wavs/andalusian_mismatch_declarative-narrow-focus_Mi-madre-come-la-fruta.wav,./stim/wavs/argentine_mismatch_declarative-narrow-focus_Mi-madre-come-la-fruta.wav,./stim/wavs/castilian_mismatch_declarative-narrow-focus_Mi-madre-come-la-fruta.wav,./stim/wavs/chilean_mismatch_declarative-narrow-focus_Mi-madre-come-la-fruta.wav,./stim/wavs/cuban_mismatch_declarative-narrow-focus_Mi-madre-come-la-fruta.wav,./stim/wavs/mexican_mismatch_declarative-narrow-focus_Mi-madre-come-la-fruta.wav,./stim/wavs/peruvian_mismatch_declarative-narrow-focus_Mi-madre-come-la-fruta.wav,./stim/wavs/puertorican_mismatch_declarative-narrow-focus_Mi-madre-come-la-fruta.wav
,,,,,,,5efb6e6f2730140ce8e7260c,602ab2f3ccc37d12d58ba79b,602b40d79070c126381cbf64,chileno,si,2021-02-16_00h50.44.585,empathy_intonation_perc_sp,2020.2.10,MacIntel,60,,,,,,,,,,1,peruvian,1,1,1.56716,0,13,13,24,1,25,./stim/wavs/andalusian_match_interrogative-total-yn_Ana-lleva-el-abrigo.wav,./stim/wavs/argentine_match_interrogative-total-yn_Ana-lleva-el-abrigo.wav,./stim/wavs/castilian_match_interrogative-total-yn_Ana-lleva-el-abrigo.wav,./stim/wavs/chilean_match_interrogative-total-yn_Ana-lleva-el-abrigo.wav,./stim/wavs/cuban_match_interrogative-total-yn_Ana-lleva-el-abrigo.wav,./stim/wavs/mexican_match_interrogative-total-yn_Ana-lleva-el-abrigo.wav,./stim/wavs/peruvian_match_interrogative-total-yn_Ana-lleva-el-abrigo.wav,./stim/wavs/puertorican_match_interrogative-total-yn_Ana-lleva-el-abrigo.wav
,,,,,,,5efb6e6f2730140ce8e7260c,602ab2f3ccc37d12d58ba79b,602b40d79070c126381cbf64,chileno,si,2021-02-16_00h50.44.585,empathy_intonation_perc_sp,2020.2.10,MacIntel,60,,,,,,,,,,1,peruvian,1,1,1.66428,0,14,14,61,1,62,./stim/wavs/andalusian_mismatch_interrogative-total-yn_Mi-madre-come-la-fruta.wav,./stim/wavs/argentine_mismatch_interrogative-total-yn_Mi-madre-come-la-fruta.wav,./stim/wavs/castilian_mismatch_interrogative-total-yn_Mi-madre-come-la-fruta.wav,./stim/wavs/chilean_mismatch_interrogative-total-yn_Mi-madre-come-la-fruta.wav,./stim/wavs/cuban_mismatch_interrogative-total-yn_Mi-madre-come-la-fruta.wav,./stim/wavs/mexican_mismatch_interrogative-total-yn_Mi-madre-come-la-fruta.wav,./stim/wavs/peruvian_mismatch_interrogative-total-yn_Mi-madre-come-la-fruta.wav,./stim/wavs/puertorican_mismatch_interrogative-total-yn_Mi-madre-come-la-fruta.wav
,,,,,,,5efb6e6f2730140ce8e7260c,602ab2f3ccc37d12d58ba79b,602b40d79070c126381cbf64,chileno,si,2021-02-16_00h50.44.585,empathy_intonation_perc_sp,2020.2.10,MacIntel,60,,,,,,,,,,1,mexican,1,1,1.48404,0,15,15,18,1,19,./stim/wavs/andalusian_match_interrogative-partial-wh_Cuando-lleva-el-abrigo.wav,./stim/wavs/argentine_match_interrogative-partial-wh_Cuando-lleva-el-abrigo.wav,./stim/wavs/castilian_match_interrogative-partial-wh_Cuando-lleva-el-abrigo.wav,./stim/wavs/chilean_match_interrogative-partial-wh_Cuando-lleva-el-abrigo.wav,./stim/wavs/cuban_match_interrogative-partial-wh_Cuando-lleva-el-abrigo.wav,./stim/wavs/mexican_match_interrogative-partial-wh_Cuando-lleva-el-abrigo.wav,./stim/wavs/peruvian_match_interrogative-partial-wh_Cuando-lleva-el-abrigo.wav,./stim/wavs/puertorican_match_interrogative-partial-wh_Cuando-lleva-el-abrigo.wav
,,,,,,,5efb6e6f2730140ce8e7260c,602ab2f3ccc37d12d58ba79b,602b40d79070c126381cbf64,chileno,si,2021-02-16_00h50.44.585,empathy_intonation_perc_sp,2020.2.10,MacIntel,60,,,,,,,,,,1,peruvian,1,1,1.52917,0,16,16,50,1,51,./stim/wavs/andalusian_mismatch_interrogative-partial-wh_Cuando-miraba-la-luna.wav,./stim/wavs/argentine_mismatch_interrogative-partial-wh_Cuando-miraba-la-luna.wav,./stim/wavs/castilian_mismatch_interrogative-partial-wh_Cuando-miraba-la-luna.wav,./stim/wavs/chilean_mismatch_interrogative-partial-wh_Cuando-miraba-la-luna.wav,./stim/wavs/cuban_mismatch_interrogative-partial-wh_Cuando-miraba-la-luna.wav,./stim/wavs/mexican_mismatch_interrogative-partial-wh_Cuando-miraba-la-luna.wav,./stim/wavs/peruvian_mismatch_interrogative-partial-wh_Cuando-miraba-la-luna.wav,./stim/wavs/puertorican_mismatch_interrogative-partial-wh_Cuando-miraba-la-luna.wav
,,,,,,,5efb6e6f2730140ce8e7260c,602ab2f3ccc37d12d58ba79b,602b40d79070c126381cbf64,chileno,si,2021-02-16_00h50.44.585,empathy_intonation_perc_sp,2020.2.10,MacIntel,60,,,,,,,,,,0,chilean,0,1,1.667415,0,17,17,44,1,45,./stim/wavs/andalusian_mismatch_declarative-narrow-focus_La-nina-lava-el-plato.wav,./stim/wavs/argentine_mismatch_declarative-narrow-focus_La-nina-lava-el-plato.wav,./stim/wavs/castilian_mismatch_declarative-narrow-focus_La-nina-lava-el-plato.wav,./stim/wavs/chilean_mismatch_declarative-narrow-focus_La-nina-lava-el-plato.wav,./stim/wavs/cuban_mismatch_declarative-narrow-focus_La-nina-lava-el-plato.wav,./stim/wavs/mexican_mismatch_declarative-narrow-focus_La-nina-lava-el-plato.wav,./stim/wavs/peruvian_mismatch_declarative-narrow-focus_La-nina-lava-el-plato.wav,./stim/wavs/puertorican_mismatch_declarative-narrow-focus_La-nina-lava-el-plato.wav
,,,,,,,5efb6e6f2730140ce8e7260c,602ab2f3ccc37d12d58ba79b,602b40d79070c126381cbf64,chileno,si,2021-02-16_00h50.44.585,empathy_intonation_perc_sp,2020.2.10,MacIntel,60,,,,,,,,,,0,chilean,0,1,2.414955,0,18,18,4,1,5,./stim/wavs/andalusian_match_declarative-broad-focus_Manuela-vende-el-carro.wav,./stim/wavs/argentine_match_declarative-broad-focus_Manuela-vende-el-carro.wav,./stim/wavs/castilian_match_declarative-broad-focus_Manuela-vende-el-carro.wav,./stim/wavs/chilean_match_declarative-broad-focus_Manuela-vende-el-carro.wav,./stim/wavs/cuban_match_declarative-broad-focus_Manuela-vende-el-carro.wav,./stim/wavs/mexican_match_declarative-broad-focus_Manuela-vende-el-carro.wav,./stim/wavs/peruvian_match_declarative-broad-focus_Manuela-vende-el-carro.wav,./stim/wavs/puertorican_match_declarative-broad-focus_Manuela-vende-el-carro.wav
,,,,,,,5efb6e6f2730140ce8e7260c,602ab2f3ccc37d12d58ba79b,602b40d79070c126381cbf64,chileno,si,2021-02-16_00h50.44.585,empathy_intonation_perc_sp,2020.2.10,MacIntel,60,,,,,,,,,,1,puertorican,1,1,1.637835,0,19,19,19,1,20,./stim/wavs/andalusian_match_interrogative-partial-wh_Cuando-vendia-el-carro.wav,./stim/wavs/argentine_match_interrogative-partial-wh_Cuando-vendia-el-carro.wav,./stim/wavs/castilian_match_interrogative-partial-wh_Cuando-vendia-el-carro.wav,./stim/wavs/chilean_match_interrogative-partial-wh_Cuando-vendia-el-carro.wav,./stim/wavs/cuban_match_interrogative-partial-wh_Cuando-vendia-el-carro.wav,./stim/wavs/mexican_match_interrogative-partial-wh_Cuando-vendia-el-carro.wav,./stim/wavs/peruvian_match_interrogative-partial-wh_Cuando-vendia-el-carro.wav,./stim/wavs/puertorican_match_interrogative-partial-wh_Cuando-vendia-el-carro.wav
,,,,,,,5efb6e6f2730140ce8e7260c,602ab2f3ccc37d12d58ba79b,602b40d79070c126381cbf64,chileno,si,2021-02-16_00h50.44.585,empathy_intonation_perc_sp,2020.2.10,MacIntel,60,,,,,,,,,,0,argentine,0,1,1.58395,0,20,20,0,1,1,./stim/wavs/andalusian_match_declarative-broad-focus_Ana-lleva-el-abrigo.wav,./stim/wavs/argentine_match_declarative-broad-focus_Ana-lleva-el-abrigo.wav,./stim/wavs/castilian_match_declarative-broad-focus_Ana-lleva-el-abrigo.wav,./stim/wavs/chilean_match_declarative-broad-focus_Ana-lleva-el-abrigo.wav,./stim/wavs/cuban_match_declarative-broad-focus_Ana-lleva-el-abrigo.wav,./stim/wavs/mexican_match_declarative-broad-focus_Ana-lleva-el-abrigo.wav,./stim/wavs/peruvian_match_declarative-broad-focus_Ana-lleva-el-abrigo.wav,./stim/wavs/puertorican_match_declarative-broad-focus_Ana-lleva-el-abrigo.wav
,,,,,,,5efb6e6f2730140ce8e7260c,602ab2f3ccc37d12d58ba79b,602b40d79070c126381cbf64,chileno,si,2021-02-16_00h50.44.585,empathy_intonation_perc_sp,2020.2.10,MacIntel,60,,,,,,,,,,0,argentine,0,1,1.6551,0,21,21,15,1,16,./stim/wavs/andalusian_match_declarative-narrow-focus_Marta-abre-el-regalo.wav,./stim/wavs/argentine_match_declarative-narrow-focus_Marta-abre-el-regalo.wav,./stim/wavs/castilian_match_declarative-narrow-focus_Marta-abre-el-regalo.wav,./stim/wavs/chilean_match_declarative-narrow-focus_Marta-abre-el-regalo.wav,./stim/wavs/cuban_match_declarative-narrow-focus_Marta-abre-el-regalo.wav,./stim/wavs/mexican_match_declarative-narrow-focus_Marta-abre-el-regalo.wav,./stim/wavs/peruvian_match_declarative-narrow-focus_Marta-abre-el-regalo.wav,./stim/wavs/puertorican_match_declarative-narrow-focus_Marta-abre-el-regalo.wav
,,,,,,,5efb6e6f2730140ce8e7260c,602ab2f3ccc37d12d58ba79b,602b40d79070c126381cbf64,chileno,si,2021-02-16_00h50.44.585,empathy_intonation_perc_sp,2020.2.10,MacIntel,60,,,,,,,,,,1,puertorican,1,1,2.01736,0,22,22,23,1,24,./stim/wavs/andalusian_match_interrogative-partial-wh_Por-que-iba-a-Bolivia.wav,./stim/wavs/argentine_match_interrogative-partial-wh_Por-que-iba-a-Bolivia.wav,./stim/wavs/castilian_match_interrogative-partial-wh_Por-que-iba-a-Bolivia.wav,./stim/wavs/chilean_match_interrogative-partial-wh_Por-que-iba-a-Bolivia.wav,./stim/wavs/cuban_match_interrogative-partial-wh_Por-que-iba-a-Bolivia.wav,./stim/wavs/mexican_match_interrogative-partial-wh_Por-que-iba-a-Bolivia.wav,./stim/wavs/peruvian_match_interrogative-partial-wh_Por-que-iba-a-Bolivia.wav,./stim/wavs/puertorican_match_interrogative-partial-wh_Por-que-iba-a-Bolivia.wav
,,,,,,,5efb6e6f2730140ce8e7260c,602ab2f3ccc37d12d58ba79b,602b40d79070c126381cbf64,chileno,si,2021-02-16_00h50.44.585,empathy_intonation_perc_sp,2020.2.10,MacIntel,60,,,,,,,,,,1,peruvian,1,1,2.18345,0,23,23,55,1,56,./stim/wavs/andalusian_mismatch_interrogative-partial-wh_Por-que-vivia-en-Paris.wav,./stim/wavs/argentine_mismatch_interrogative-partial-wh_Por-que-vivia-en-Paris.wav,./stim/wavs/castilian_mismatch_interrogative-partial-wh_Por-que-vivia-en-Paris.wav,./stim/wavs/chilean_mismatch_interrogative-partial-wh_Por-que-vivia-en-Paris.wav,./stim/wavs/cuban_mismatch_interrogative-partial-wh_Por-que-vivia-en-Paris.wav,./stim/wavs/mexican_mismatch_interrogative-partial-wh_Por-que-vivia-en-Paris.wav,./stim/wavs/peruvian_mismatch_interrogative-partial-wh_Por-que-vivia-en-Paris.wav,./stim/wavs/puertorican_mismatch_interrogative-partial-wh_Por-que-vivia-en-Paris.wav
,,,,,,,5efb6e6f2730140ce8e7260c,602ab2f3ccc37d12d58ba79b,602b40d79070c126381cbf64,chileno,si,2021-02-16_00h50.44.585,empathy_intonation_perc_sp,2020.2.10,MacIntel,60,,,,,,,,,,0,andalusian,0,1,1.754715,0,24,24,5,1,6,./stim/wavs/andalusian_match_declarative-broad-focus_Maria-bebe-el-vino.wav,./stim/wavs/argentine_match_declarative-broad-focus_Maria-bebe-el-vino.wav,./stim/wavs/castilian_match_declarative-broad-focus_Maria-bebe-el-vino.wav,./stim/wavs/chilean_match_declarative-broad-focus_Maria-bebe-el-vino.wav,./stim/wavs/cuban_match_declarative-broad-focus_Maria-bebe-el-vino.wav,./stim/wavs/mexican_match_declarative-broad-focus_Maria-bebe-el-vino.wav,./stim/wavs/peruvian_match_declarative-broad-focus_Maria-bebe-el-vino.wav,./stim/wavs/puertorican_match_declarative-broad-focus_Maria-bebe-el-vino.wav
,,,,,,,5efb6e6f2730140ce8e7260c,602ab2f3ccc37d12d58ba79b,602b40d79070c126381cbf64,chileno,si,2021-02-16_00h50.44.585,empathy_intonation_perc_sp,2020.2.10,MacIntel,60,,,,,,,,,,1,puertorican,1,1,1.937835,0,25,25,25,1,26,./stim/wavs/andalusian_match_interrogative-total-yn_Daniel-iba-a-Bolivia.wav,./stim/wavs/argentine_match_interrogative-total-yn_Daniel-iba-a-Bolivia.wav,./stim/wavs/castilian_match_interrogative-total-yn_Daniel-iba-a-Bolivia.wav,./stim/wavs/chilean_match_interrogative-total-yn_Daniel-iba-a-Bolivia.wav,./stim/wavs/cuban_match_interrogative-total-yn_Daniel-iba-a-Bolivia.wav,./stim/wavs/mexican_match_interrogative-total-yn_Daniel-iba-a-Bolivia.wav,./stim/wavs/peruvian_match_interrogative-total-yn_Daniel-iba-a-Bolivia.wav,./stim/wavs/puertorican_match_interrogative-total-yn_Daniel-iba-a-Bolivia.wav
,,,,,,,5efb6e6f2730140ce8e7260c,602ab2f3ccc37d12d58ba79b,602b40d79070c126381cbf64,chileno,si,2021-02-16_00h50.44.585,empathy_intonation_perc_sp,2020.2.10,MacIntel,60,,,,,,,,,,0,puertorican,0,1,1.383655,0,26,26,8,1,9,./stim/wavs/andalusian_match_declarative-narrow-focus_Ana-lleva-el-abrigo.wav,./stim/wavs/argentine_match_declarative-narrow-focus_Ana-lleva-el-abrigo.wav,./stim/wavs/castilian_match_declarative-narrow-focus_Ana-lleva-el-abrigo.wav,./stim/wavs/chilean_match_declarative-narrow-focus_Ana-lleva-el-abrigo.wav,./stim/wavs/cuban_match_declarative-narrow-focus_Ana-lleva-el-abrigo.wav,./stim/wavs/mexican_match_declarative-narrow-focus_Ana-lleva-el-abrigo.wav,./stim/wavs/peruvian_match_declarative-narrow-focus_Ana-lleva-el-abrigo.wav,./stim/wavs/puertorican_match_declarative-narrow-focus_Ana-lleva-el-abrigo.wav
,,,,,,,5efb6e6f2730140ce8e7260c,602ab2f3ccc37d12d58ba79b,602b40d79070c126381cbf64,chileno,si,2021-02-16_00h50.44.585,empathy_intonation_perc_sp,2020.2.10,MacIntel,60,,,,,,,,,,1,andalusian,1,1,1.78408,0,27,27,53,1,54,./stim/wavs/andalusian_mismatch_interrogative-partial-wh_Por-que-oia-el-rio.wav,./stim/wavs/argentine_mismatch_interrogative-partial-wh_Por-que-oia-el-rio.wav,./stim/wavs/castilian_mismatch_interrogative-partial-wh_Por-que-oia-el-rio.wav,./stim/wavs/chilean_mismatch_interrogative-partial-wh_Por-que-oia-el-rio.wav,./stim/wavs/cuban_mismatch_interrogative-partial-wh_Por-que-oia-el-rio.wav,./stim/wavs/mexican_mismatch_interrogative-partial-wh_Por-que-oia-el-rio.wav,./stim/wavs/peruvian_mismatch_interrogative-partial-wh_Por-que-oia-el-rio.wav,./stim/wavs/puertorican_mismatch_interrogative-partial-wh_Por-que-oia-el-rio.wav
,,,,,,,5efb6e6f2730140ce8e7260c,602ab2f3ccc37d12d58ba79b,602b40d79070c126381cbf64,chileno,si,2021-02-16_00h50.44.585,empathy_intonation_perc_sp,2020.2.10,MacIntel,60,,,,,,,,,,0,mexican,0,1,1.503595,0,28,28,9,1,10,./stim/wavs/andalusian_match_declarative-narrow-focus_Daniel-iba-a-Bolivia.wav,./stim/wavs/argentine_match_declarative-narrow-focus_Daniel-iba-a-Bolivia.wav,./stim/wavs/castilian_match_declarative-narrow-focus_Daniel-iba-a-Bolivia.wav,./stim/wavs/chilean_match_declarative-narrow-focus_Daniel-iba-a-Bolivia.wav,./stim/wavs/cuban_match_declarative-narrow-focus_Daniel-iba-a-Bolivia.wav,./stim/wavs/mexican_match_declarative-narrow-focus_Daniel-iba-a-Bolivia.wav,./stim/wavs/peruvian_match_declarative-narrow-focus_Daniel-iba-a-Bolivia.wav,./stim/wavs/puertorican_match_declarative-narrow-focus_Daniel-iba-a-Bolivia.wav
,,,,,,,5efb6e6f2730140ce8e7260c,602ab2f3ccc37d12d58ba79b,602b40d79070c126381cbf64,chileno,si,2021-02-16_00h50.44.585,empathy_intonation_perc_sp,2020.2.10,MacIntel,60,,,,,,,,,,0,argentine,0,1,1.81401,0,29,29,32,1,33,./stim/wavs/andalusian_mismatch_declarative-broad-focus_El-bebe-comia-muy-bien.wav,./stim/wavs/argentine_mismatch_declarative-broad-focus_El-bebe-comia-muy-bien.wav,./stim/wavs/castilian_mismatch_declarative-broad-focus_El-bebe-comia-muy-bien.wav,./stim/wavs/chilean_mismatch_declarative-broad-focus_El-bebe-comia-muy-bien.wav,./stim/wavs/cuban_mismatch_declarative-broad-focus_El-bebe-comia-muy-bien.wav,./stim/wavs/mexican_mismatch_declarative-broad-focus_El-bebe-comia-muy-bien.wav,./stim/wavs/peruvian_mismatch_declarative-broad-focus_El-bebe-comia-muy-bien.wav,./stim/wavs/puertorican_mismatch_declarative-broad-focus_El-bebe-comia-muy-bien.wav
,,,,,,,5efb6e6f2730140ce8e7260c,602ab2f3ccc37d12d58ba79b,602b40d79070c126381cbf64,chileno,si,2021-02-16_00h50.44.585,empathy_intonation_perc_sp,2020.2.10,MacIntel,60,,,,,,,,,,1,peruvian,1,1,1.767005,0,30,30,28,1,29,./stim/wavs/andalusian_match_interrogative-total-yn_Manuela-vende-el-carro.wav,./stim/wavs/argentine_match_interrogative-total-yn_Manuela-vende-el-carro.wav,./stim/wavs/castilian_match_interrogative-total-yn_Manuela-vende-el-carro.wav,./stim/wavs/chilean_match_interrogative-total-yn_Manuela-vende-el-carro.wav,./stim/wavs/cuban_match_interrogative-total-yn_Manuela-vende-el-carro.wav,./stim/wavs/mexican_match_interrogative-total-yn_Manuela-vende-el-carro.wav,./stim/wavs/peruvian_match_interrogative-total-yn_Manuela-vende-el-carro.wav,./stim/wavs/puertorican_match_interrogative-total-yn_Manuela-vende-el-carro.wav
,,,,,,,5efb6e6f2730140ce8e7260c,602ab2f3ccc37d12d58ba79b,602b40d79070c126381cbf64,chileno,si,2021-02-16_00h50.44.585,empathy_intonation_perc_sp,2020.2.10,MacIntel,60,,,,,,,,,,1,andalusian,1,1,1.71825,0,31,31,30,1,31,./stim/wavs/andalusian_match_interrogative-total-yn_Mariano-habla-del-tiempo.wav,./stim/wavs/argentine_match_interrogative-total-yn_Mariano-habla-del-tiempo.wav,./stim/wavs/castilian_match_interrogative-total-yn_Mariano-habla-del-tiempo.wav,./stim/wavs/chilean_match_interrogative-total-yn_Mariano-habla-del-tiempo.wav,./stim/wavs/cuban_match_interrogative-total-yn_Mariano-habla-del-tiempo.wav,./stim/wavs/mexican_match_interrogative-total-yn_Mariano-habla-del-tiempo.wav,./stim/wavs/peruvian_match_interrogative-total-yn_Mariano-habla-del-tiempo.wav,./stim/wavs/puertorican_match_interrogative-total-yn_Mariano-habla-del-tiempo.wav
,,,,,,,5efb6e6f2730140ce8e7260c,602ab2f3ccc37d12d58ba79b,602b40d79070c126381cbf64,chileno,si,2021-02-16_00h50.44.585,empathy_intonation_perc_sp,2020.2.10,MacIntel,60,,,,,,,,,,0,cuban,0,1,1.93795,0,32,32,11,1,12,./stim/wavs/andalusian_match_declarative-narrow-focus_Emilio-ama-la-marcha.wav,./stim/wavs/argentine_match_declarative-narrow-focus_Emilio-ama-la-marcha.wav,./stim/wavs/castilian_match_declarative-narrow-focus_Emilio-ama-la-marcha.wav,./stim/wavs/chilean_match_declarative-narrow-focus_Emilio-ama-la-marcha.wav,./stim/wavs/cuban_match_declarative-narrow-focus_Emilio-ama-la-marcha.wav,./stim/wavs/mexican_match_declarative-narrow-focus_Emilio-ama-la-marcha.wav,./stim/wavs/peruvian_match_declarative-narrow-focus_Emilio-ama-la-marcha.wav,./stim/wavs/puertorican_match_declarative-narrow-focus_Emilio-ama-la-marcha.wav
,,,,,,,5efb6e6f2730140ce8e7260c,602ab2f3ccc37d12d58ba79b,602b40d79070c126381cbf64,chileno,si,2021-02-16_00h50.44.585,empathy_intonation_perc_sp,2020.2.10,MacIntel,60,,,,,,,,,,0,argentine,0,1,2.83483,0,33,33,34,1,35,./stim/wavs/andalusian_mismatch_declarative-broad-focus_El-nino-oye-el-rio.wav,./stim/wavs/argentine_mismatch_declarative-broad-focus_El-nino-oye-el-rio.wav,./stim/wavs/castilian_mismatch_declarative-broad-focus_El-nino-oye-el-rio.wav,./stim/wavs/chilean_mismatch_declarative-broad-focus_El-nino-oye-el-rio.wav,./stim/wavs/cuban_mismatch_declarative-broad-focus_El-nino-oye-el-rio.wav,./stim/wavs/mexican_mismatch_declarative-broad-focus_El-nino-oye-el-rio.wav,./stim/wavs/peruvian_mismatch_declarative-broad-focus_El-nino-oye-el-rio.wav,./stim/wavs/puertorican_mismatch_declarative-broad-focus_El-nino-oye-el-rio.wav
,,,,,,,5efb6e6f2730140ce8e7260c,602ab2f3ccc37d12d58ba79b,602b40d79070c126381cbf64,chileno,si,2021-02-16_00h50.44.585,empathy_intonation_perc_sp,2020.2.10,MacIntel,60,,,,,,,,,,1,puertorican,1,1,1.75079,0,34,34,59,1,60,./stim/wavs/andalusian_mismatch_interrogative-total-yn_La-maestra-vive-en-Paris.wav,./stim/wavs/argentine_mismatch_interrogative-total-yn_La-maestra-vive-en-Paris.wav,./stim/wavs/castilian_mismatch_interrogative-total-yn_La-maestra-vive-en-Paris.wav,./stim/wavs/chilean_mismatch_interrogative-total-yn_La-maestra-vive-en-Paris.wav,./stim/wavs/cuban_mismatch_interrogative-total-yn_La-maestra-vive-en-Paris.wav,./stim/wavs/mexican_mismatch_interrogative-total-yn_La-maestra-vive-en-Paris.wav,./stim/wavs/peruvian_mismatch_interrogative-total-yn_La-maestra-vive-en-Paris.wav,./stim/wavs/puertorican_mismatch_interrogative-total-yn_La-maestra-vive-en-Paris.wav
,,,,,,,5efb6e6f2730140ce8e7260c,602ab2f3ccc37d12d58ba79b,602b40d79070c126381cbf64,chileno,si,2021-02-16_00h50.44.585,empathy_intonation_perc_sp,2020.2.10,MacIntel,60,,,,,,,,,,0,castilian,0,1,1.8801,0,35,35,3,1,4,./stim/wavs/andalusian_match_declarative-broad-focus_Emilio-ama-la-marcha.wav,./stim/wavs/argentine_match_declarative-broad-focus_Emilio-ama-la-marcha.wav,./stim/wavs/castilian_match_declarative-broad-focus_Emilio-ama-la-marcha.wav,./stim/wavs/chilean_match_declarative-broad-focus_Emilio-ama-la-marcha.wav,./stim/wavs/cuban_match_declarative-broad-focus_Emilio-ama-la-marcha.wav,./stim/wavs/mexican_match_declarative-broad-focus_Emilio-ama-la-marcha.wav,./stim/wavs/peruvian_match_declarative-broad-focus_Emilio-ama-la-marcha.wav,./stim/wavs/puertorican_match_declarative-broad-focus_Emilio-ama-la-marcha.wav
,,,,,,,5efb6e6f2730140ce8e7260c,602ab2f3ccc37d12d58ba79b,602b40d79070c126381cbf64,chileno,si,2021-02-16_00h50.44.585,empathy_intonation_perc_sp,2020.2.10,MacIntel,60,,,,,,,,,,1,puertorican,1,1,1.48603,0,36,36,56,1,57,./stim/wavs/andalusian_mismatch_interrogative-total-yn_El-bebe-comia-muy-bien.wav,./stim/wavs/argentine_mismatch_interrogative-total-yn_El-bebe-comia-muy-bien.wav,./stim/wavs/castilian_mismatch_interrogative-total-yn_El-bebe-comia-muy-bien.wav,./stim/wavs/chilean_mismatch_interrogative-total-yn_El-bebe-comia-muy-bien.wav,./stim/wavs/cuban_mismatch_interrogative-total-yn_El-bebe-comia-muy-bien.wav,./stim/wavs/mexican_mismatch_interrogative-total-yn_El-bebe-comia-muy-bien.wav,./stim/wavs/peruvian_mismatch_interrogative-total-yn_El-bebe-comia-muy-bien.wav,./stim/wavs/puertorican_mismatch_interrogative-total-yn_El-bebe-comia-muy-bien.wav
,,,,,,,5efb6e6f2730140ce8e7260c,602ab2f3ccc37d12d58ba79b,602b40d79070c126381cbf64,chileno,si,2021-02-16_00h50.44.585,empathy_intonation_perc_sp,2020.2.10,MacIntel,60,,,,,,,,,,0,puertorican,0,1,1.582975,0,37,37,14,1,15,./stim/wavs/andalusian_match_declarative-narrow-focus_Mariano-habla-del-tiempo.wav,./stim/wavs/argentine_match_declarative-narrow-focus_Mariano-habla-del-tiempo.wav,./stim/wavs/castilian_match_declarative-narrow-focus_Mariano-habla-del-tiempo.wav,./stim/wavs/chilean_match_declarative-narrow-focus_Mariano-habla-del-tiempo.wav,./stim/wavs/cuban_match_declarative-narrow-focus_Mariano-habla-del-tiempo.wav,./stim/wavs/mexican_match_declarative-narrow-focus_Mariano-habla-del-tiempo.wav,./stim/wavs/peruvian_match_declarative-narrow-focus_Mariano-habla-del-tiempo.wav,./stim/wavs/puertorican_match_declarative-narrow-focus_Mariano-habla-del-tiempo.wav
,,,,,,,5efb6e6f2730140ce8e7260c,602ab2f3ccc37d12d58ba79b,602b40d79070c126381cbf64,chileno,si,2021-02-16_00h50.44.585,empathy_intonation_perc_sp,2020.2.10,MacIntel,60,,,,,,,,,,0,castilian,0,1,2.205595,0,38,38,35,1,36,./stim/wavs/andalusian_mismatch_declarative-broad-focus_La-maestra-vive-en-Paris.wav,./stim/wavs/argentine_mismatch_declarative-broad-focus_La-maestra-vive-en-Paris.wav,./stim/wavs/castilian_mismatch_declarative-broad-focus_La-maestra-vive-en-Paris.wav,./stim/wavs/chilean_mismatch_declarative-broad-focus_La-maestra-vive-en-Paris.wav,./stim/wavs/cuban_mismatch_declarative-broad-focus_La-maestra-vive-en-Paris.wav,./stim/wavs/mexican_mismatch_declarative-broad-focus_La-maestra-vive-en-Paris.wav,./stim/wavs/peruvian_mismatch_declarative-broad-focus_La-maestra-vive-en-Paris.wav,./stim/wavs/puertorican_mismatch_declarative-broad-focus_La-maestra-vive-en-Paris.wav
,,,,,,,5efb6e6f2730140ce8e7260c,602ab2f3ccc37d12d58ba79b,602b40d79070c126381cbf64,chileno,si,2021-02-16_00h50.44.585,empathy_intonation_perc_sp,2020.2.10,MacIntel,60,,,,,,,,,,1,peruvian,0,0,3.701405,0,39,39,52,1,53,./stim/wavs/andalusian_mismatch_interrogative-partial-wh_Por-que-odiaba-la-lluvia.wav,./stim/wavs/argentine_mismatch_interrogative-partial-wh_Por-que-odiaba-la-lluvia.wav,./stim/wavs/castilian_mismatch_interrogative-partial-wh_Por-que-odiaba-la-lluvia.wav,./stim/wavs/chilean_mismatch_interrogative-partial-wh_Por-que-odiaba-la-lluvia.wav,./stim/wavs/cuban_mismatch_interrogative-partial-wh_Por-que-odiaba-la-lluvia.wav,./stim/wavs/mexican_mismatch_interrogative-partial-wh_Por-que-odiaba-la-lluvia.wav,./stim/wavs/peruvian_mismatch_interrogative-partial-wh_Por-que-odiaba-la-lluvia.wav,./stim/wavs/puertorican_mismatch_interrogative-partial-wh_Por-que-odiaba-la-lluvia.wav
,,,,,,,5efb6e6f2730140ce8e7260c,602ab2f3ccc37d12d58ba79b,602b40d79070c126381cbf64,chileno,si,2021-02-16_00h50.44.585,empathy_intonation_perc_sp,2020.2.10,MacIntel,60,,,,,,,,,,0,castilian,0,1,1.796545,0,40,40,2,1,3,./stim/wavs/andalusian_match_declarative-broad-focus_David-leia-el-libro.wav,./stim/wavs/argentine_match_declarative-broad-focus_David-leia-el-libro.wav,./stim/wavs/castilian_match_declarative-broad-focus_David-leia-el-libro.wav,./stim/wavs/chilean_match_declarative-broad-focus_David-leia-el-libro.wav,./stim/wavs/cuban_match_declarative-broad-focus_David-leia-el-libro.wav,./stim/wavs/mexican_match_declarative-broad-focus_David-leia-el-libro.wav,./stim/wavs/peruvian_match_declarative-broad-focus_David-leia-el-libro.wav,./stim/wavs/puertorican_match_declarative-broad-focus_David-leia-el-libro.wav
,,,,,,,5efb6e6f2730140ce8e7260c,602ab2f3ccc37d12d58ba79b,602b40d79070c126381cbf64,chileno,si,2021-02-16_00h50.44.585,empathy_intonation_perc_sp,2020.2.10,MacIntel,60,,,,,,,,,,1,castilian,1,1,1.70145,0,41,41,26,1,27,./stim/wavs/andalusian_match_interrogative-total-yn_David-leia-el-libro.wav,./stim/wavs/argentine_match_interrogative-total-yn_David-leia-el-libro.wav,./stim/wavs/castilian_match_interrogative-total-yn_David-leia-el-libro.wav,./stim/wavs/chilean_match_interrogative-total-yn_David-leia-el-libro.wav,./stim/wavs/cuban_match_interrogative-total-yn_David-leia-el-libro.wav,./stim/wavs/mexican_match_interrogative-total-yn_David-leia-el-libro.wav,./stim/wavs/peruvian_match_interrogative-total-yn_David-leia-el-libro.wav,./stim/wavs/puertorican_match_interrogative-total-yn_David-leia-el-libro.wav
,,,,,,,5efb6e6f2730140ce8e7260c,602ab2f3ccc37d12d58ba79b,602b40d79070c126381cbf64,chileno,si,2021-02-16_00h50.44.585,empathy_intonation_perc_sp,2020.2.10,MacIntel,60,,,,,,,,,,1,castilian,1,1,1.9514,0,42,42,20,1,21,./stim/wavs/andalusian_match_interrogative-partial-wh_Por-que-abre-el-regalo.wav,./stim/wavs/argentine_match_interrogative-partial-wh_Por-que-abre-el-regalo.wav,./stim/wavs/castilian_match_interrogative-partial-wh_Por-que-abre-el-regalo.wav,./stim/wavs/chilean_match_interrogative-partial-wh_Por-que-abre-el-regalo.wav,./stim/wavs/cuban_match_interrogative-partial-wh_Por-que-abre-el-regalo.wav,./stim/wavs/mexican_match_interrogative-partial-wh_Por-que-abre-el-regalo.wav,./stim/wavs/peruvian_match_interrogative-partial-wh_Por-que-abre-el-regalo.wav,./stim/wavs/puertorican_match_interrogative-partial-wh_Por-que-abre-el-regalo.wav
,,,,,,,5efb6e6f2730140ce8e7260c,602ab2f3ccc37d12d58ba79b,602b40d79070c126381cbf64,chileno,si,2021-02-16_00h50.44.585,empathy_intonation_perc_sp,2020.2.10,MacIntel,60,,,,,,,,,,0,mexican,0,1,1.76763,0,43,43,42,1,43,./stim/wavs/andalusian_mismatch_declarative-narrow-focus_El-nino-oye-el-rio.wav,./stim/wavs/argentine_mismatch_declarative-narrow-focus_El-nino-oye-el-rio.wav,./stim/wavs/castilian_mismatch_declarative-narrow-focus_El-nino-oye-el-rio.wav,./stim/wavs/chilean_mismatch_declarative-narrow-focus_El-nino-oye-el-rio.wav,./stim/wavs/cuban_mismatch_declarative-narrow-focus_El-nino-oye-el-rio.wav,./stim/wavs/mexican_mismatch_declarative-narrow-focus_El-nino-oye-el-rio.wav,./stim/wavs/peruvian_mismatch_declarative-narrow-focus_El-nino-oye-el-rio.wav,./stim/wavs/puertorican_mismatch_declarative-narrow-focus_El-nino-oye-el-rio.wav
,,,,,,,5efb6e6f2730140ce8e7260c,602ab2f3ccc37d12d58ba79b,602b40d79070c126381cbf64,chileno,si,2021-02-16_00h50.44.585,empathy_intonation_perc_sp,2020.2.10,MacIntel,60,,,,,,,,,,0,cuban,0,1,1.71727,0,44,44,13,1,14,./stim/wavs/andalusian_match_declarative-narrow-focus_Maria-bebe-el-vino.wav,./stim/wavs/argentine_match_declarative-narrow-focus_Maria-bebe-el-vino.wav,./stim/wavs/castilian_match_declarative-narrow-focus_Maria-bebe-el-vino.wav,./stim/wavs/chilean_match_declarative-narrow-focus_Maria-bebe-el-vino.wav,./stim/wavs/cuban_match_declarative-narrow-focus_Maria-bebe-el-vino.wav,./stim/wavs/mexican_match_declarative-narrow-focus_Maria-bebe-el-vino.wav,./stim/wavs/peruvian_match_declarative-narrow-focus_Maria-bebe-el-vino.wav,./stim/wavs/puertorican_match_declarative-narrow-focus_Maria-bebe-el-vino.wav
,,,,,,,5efb6e6f2730140ce8e7260c,602ab2f3ccc37d12d58ba79b,602b40d79070c126381cbf64,chileno,si,2021-02-16_00h50.44.585,empathy_intonation_perc_sp,2020.2.10,MacIntel,60,,,,,,,,,,1,andalusian,1,1,1.515935,0,45,45,57,1,58,./stim/wavs/andalusian_mismatch_interrogative-total-yn_El-hombre-mira-la-luna.wav,./stim/wavs/argentine_mismatch_interrogative-total-yn_El-hombre-mira-la-luna.wav,./stim/wavs/castilian_mismatch_interrogative-total-yn_El-hombre-mira-la-luna.wav,./stim/wavs/chilean_mismatch_interrogative-total-yn_El-hombre-mira-la-luna.wav,./stim/wavs/cuban_mismatch_interrogative-total-yn_El-hombre-mira-la-luna.wav,./stim/wavs/mexican_mismatch_interrogative-total-yn_El-hombre-mira-la-luna.wav,./stim/wavs/peruvian_mismatch_interrogative-total-yn_El-hombre-mira-la-luna.wav,./stim/wavs/puertorican_mismatch_interrogative-total-yn_El-hombre-mira-la-luna.wav
,,,,,,,5efb6e6f2730140ce8e7260c,602ab2f3ccc37d12d58ba79b,602b40d79070c126381cbf64,chileno,si,2021-02-16_00h50.44.585,empathy_intonation_perc_sp,2020.2.10,MacIntel,60,,,,,,,,,,0,cuban,0,1,1.70567,0,46,46,10,1,11,./stim/wavs/andalusian_match_declarative-narrow-focus_David-leia-el-libro.wav,./stim/wavs/argentine_match_declarative-narrow-focus_David-leia-el-libro.wav,./stim/wavs/castilian_match_declarative-narrow-focus_David-leia-el-libro.wav,./stim/wavs/chilean_match_declarative-narrow-focus_David-leia-el-libro.wav,./stim/wavs/cuban_match_declarative-narrow-focus_David-leia-el-libro.wav,./stim/wavs/mexican_match_declarative-narrow-focus_David-leia-el-libro.wav,./stim/wavs/peruvian_match_declarative-narrow-focus_David-leia-el-libro.wav,./stim/wavs/puertorican_match_declarative-narrow-focus_David-leia-el-libro.wav
,,,,,,,5efb6e6f2730140ce8e7260c,602ab2f3ccc37d12d58ba79b,602b40d79070c126381cbf64,chileno,si,2021-02-16_00h50.44.585,empathy_intonation_perc_sp,2020.2.10,MacIntel,60,,,,,,,,,,0,cuban,0,1,2.164375,0,47,47,40,1,41,./stim/wavs/andalusian_mismatch_declarative-narrow-focus_El-bebe-comia-muy-bien.wav,./stim/wavs/argentine_mismatch_declarative-narrow-focus_El-bebe-comia-muy-bien.wav,./stim/wavs/castilian_mismatch_declarative-narrow-focus_El-bebe-comia-muy-bien.wav,./stim/wavs/chilean_mismatch_declarative-narrow-focus_El-bebe-comia-muy-bien.wav,./stim/wavs/cuban_mismatch_declarative-narrow-focus_El-bebe-comia-muy-bien.wav,./stim/wavs/mexican_mismatch_declarative-narrow-focus_El-bebe-comia-muy-bien.wav,./stim/wavs/peruvian_mismatch_declarative-narrow-focus_El-bebe-comia-muy-bien.wav,./stim/wavs/puertorican_mismatch_declarative-narrow-focus_El-bebe-comia-muy-bien.wav
,,,,,,,5efb6e6f2730140ce8e7260c,602ab2f3ccc37d12d58ba79b,602b40d79070c126381cbf64,chileno,si,2021-02-16_00h50.44.585,empathy_intonation_perc_sp,2020.2.10,MacIntel,60,,,,,,,,,,1,peruvian,0,0,1.702535,0,48,48,17,1,18,./stim/wavs/andalusian_match_interrogative-partial-wh_Cuando-leia-el-libro.wav,./stim/wavs/argentine_match_interrogative-partial-wh_Cuando-leia-el-libro.wav,./stim/wavs/castilian_match_interrogative-partial-wh_Cuando-leia-el-libro.wav,./stim/wavs/chilean_match_interrogative-partial-wh_Cuando-leia-el-libro.wav,./stim/wavs/cuban_match_interrogative-partial-wh_Cuando-leia-el-libro.wav,./stim/wavs/mexican_match_interrogative-partial-wh_Cuando-leia-el-libro.wav,./stim/wavs/peruvian_match_interrogative-partial-wh_Cuando-leia-el-libro.wav,./stim/wavs/puertorican_match_interrogative-partial-wh_Cuando-leia-el-libro.wav
,,,,,,,5efb6e6f2730140ce8e7260c,602ab2f3ccc37d12d58ba79b,602b40d79070c126381cbf64,chileno,si,2021-02-16_00h50.44.585,empathy_intonation_perc_sp,2020.2.10,MacIntel,60,,,,,,,,,,1,chilean,1,1,1.599875,0,49,49,58,1,59,./stim/wavs/andalusian_mismatch_interrogative-total-yn_El-nino-oye-el-rio.wav,./stim/wavs/argentine_mismatch_interrogative-total-yn_El-nino-oye-el-rio.wav,./stim/wavs/castilian_mismatch_interrogative-total-yn_El-nino-oye-el-rio.wav,./stim/wavs/chilean_mismatch_interrogative-total-yn_El-nino-oye-el-rio.wav,./stim/wavs/cuban_mismatch_interrogative-total-yn_El-nino-oye-el-rio.wav,./stim/wavs/mexican_mismatch_interrogative-total-yn_El-nino-oye-el-rio.wav,./stim/wavs/peruvian_mismatch_interrogative-total-yn_El-nino-oye-el-rio.wav,./stim/wavs/puertorican_mismatch_interrogative-total-yn_El-nino-oye-el-rio.wav
,,,,,,,5efb6e6f2730140ce8e7260c,602ab2f3ccc37d12d58ba79b,602b40d79070c126381cbf64,chileno,si,2021-02-16_00h50.44.585,empathy_intonation_perc_sp,2020.2.10,MacIntel,60,,,,,,,,,,1,castilian,1,1,1.95273,0,50,50,31,1,32,./stim/wavs/andalusian_match_interrogative-total-yn_Marta-abre-el-regalo.wav,./stim/wavs/argentine_match_interrogative-total-yn_Marta-abre-el-regalo.wav,./stim/wavs/castilian_match_interrogative-total-yn_Marta-abre-el-regalo.wav,./stim/wavs/chilean_match_interrogative-total-yn_Marta-abre-el-regalo.wav,./stim/wavs/cuban_match_interrogative-total-yn_Marta-abre-el-regalo.wav,./stim/wavs/mexican_match_interrogative-total-yn_Marta-abre-el-regalo.wav,./stim/wavs/peruvian_match_interrogative-total-yn_Marta-abre-el-regalo.wav,./stim/wavs/puertorican_match_interrogative-total-yn_Marta-abre-el-regalo.wav
,,,,,,,5efb6e6f2730140ce8e7260c,602ab2f3ccc37d12d58ba79b,602b40d79070c126381cbf64,chileno,si,2021-02-16_00h50.44.585,empathy_intonation_perc_sp,2020.2.10,MacIntel,60,,,,,,,,,,1,mexican,1,1,2.59725,0,51,51,21,1,22,./stim/wavs/andalusian_match_interrogative-partial-wh_Por-que-ama-la-navidad.wav,./stim/wavs/argentine_match_interrogative-partial-wh_Por-que-ama-la-navidad.wav,./stim/wavs/castilian_match_interrogative-partial-wh_Por-que-ama-la-navidad.wav,./stim/wavs/chilean_match_interrogative-partial-wh_Por-que-ama-la-navidad.wav,./stim/wavs/cuban_match_interrogative-partial-wh_Por-que-ama-la-navidad.wav,./stim/wavs/mexican_match_interrogative-partial-wh_Por-que-ama-la-navidad.wav,./stim/wavs/peruvian_match_interrogative-partial-wh_Por-que-ama-la-navidad.wav,./stim/wavs/puertorican_match_interrogative-partial-wh_Por-que-ama-la-navidad.wav
,,,,,,,5efb6e6f2730140ce8e7260c,602ab2f3ccc37d12d58ba79b,602b40d79070c126381cbf64,chileno,si,2021-02-16_00h50.44.585,empathy_intonation_perc_sp,2020.2.10,MacIntel,60,,,,,,,,,,0,peruvian,0,1,1.896135,0,52,52,12,1,13,./stim/wavs/andalusian_match_declarative-narrow-focus_Manuela-vende-el-carro.wav,./stim/wavs/argentine_match_declarative-narrow-focus_Manuela-vende-el-carro.wav,./stim/wavs/castilian_match_declarative-narrow-focus_Manuela-vende-el-carro.wav,./stim/wavs/chilean_match_declarative-narrow-focus_Manuela-vende-el-carro.wav,./stim/wavs/cuban_match_declarative-narrow-focus_Manuela-vende-el-carro.wav,./stim/wavs/mexican_match_declarative-narrow-focus_Manuela-vende-el-carro.wav,./stim/wavs/peruvian_match_declarative-narrow-focus_Manuela-vende-el-carro.wav,./stim/wavs/puertorican_match_declarative-narrow-focus_Manuela-vende-el-carro.wav
,,,,,,,5efb6e6f2730140ce8e7260c,602ab2f3ccc37d12d58ba79b,602b40d79070c126381cbf64,chileno,si,2021-02-16_00h50.44.585,empathy_intonation_perc_sp,2020.2.10,MacIntel,60,,,,,,,,,,0,peruvian,0,1,1.895625,0,53,53,39,1,40,./stim/wavs/andalusian_mismatch_declarative-broad-focus_Mi-tia-odia-la-lluvia.wav,./stim/wavs/argentine_mismatch_declarative-broad-focus_Mi-tia-odia-la-lluvia.wav,./stim/wavs/castilian_mismatch_declarative-broad-focus_Mi-tia-odia-la-lluvia.wav,./stim/wavs/chilean_mismatch_declarative-broad-focus_Mi-tia-odia-la-lluvia.wav,./stim/wavs/cuban_mismatch_declarative-broad-focus_Mi-tia-odia-la-lluvia.wav,./stim/wavs/mexican_mismatch_declarative-broad-focus_Mi-tia-odia-la-lluvia.wav,./stim/wavs/peruvian_mismatch_declarative-broad-focus_Mi-tia-odia-la-lluvia.wav,./stim/wavs/puertorican_mismatch_declarative-broad-focus_Mi-tia-odia-la-lluvia.wav
,,,,,,,5efb6e6f2730140ce8e7260c,602ab2f3ccc37d12d58ba79b,602b40d79070c126381cbf64,chileno,si,2021-02-16_00h50.44.585,empathy_intonation_perc_sp,2020.2.10,MacIntel,60,,,,,,,,,,1,mexican,1,1,1.77218,0,54,54,51,1,52,./stim/wavs/andalusian_mismatch_interrogative-partial-wh_Por-que-desayuna-muy-bien.wav,./stim/wavs/argentine_mismatch_interrogative-partial-wh_Por-que-desayuna-muy-bien.wav,./stim/wavs/castilian_mismatch_interrogative-partial-wh_Por-que-desayuna-muy-bien.wav,./stim/wavs/chilean_mismatch_interrogative-partial-wh_Por-que-desayuna-muy-bien.wav,./stim/wavs/cuban_mismatch_interrogative-partial-wh_Por-que-desayuna-muy-bien.wav,./stim/wavs/mexican_mismatch_interrogative-partial-wh_Por-que-desayuna-muy-bien.wav,./stim/wavs/peruvian_mismatch_interrogative-partial-wh_Por-que-desayuna-muy-bien.wav,./stim/wavs/puertorican_mismatch_interrogative-partial-wh_Por-que-desayuna-muy-bien.wav
,,,,,,,5efb6e6f2730140ce8e7260c,602ab2f3ccc37d12d58ba79b,602b40d79070c126381cbf64,chileno,si,2021-02-16_00h50.44.585,empathy_intonation_perc_sp,2020.2.10,MacIntel,60,,,,,,,,,,0,peruvian,0,1,1.78392,0,55,55,7,1,8,./stim/wavs/andalusian_match_declarative-broad-focus_Marta-abre-el-regalo.wav,./stim/wavs/argentine_match_declarative-broad-focus_Marta-abre-el-regalo.wav,./stim/wavs/castilian_match_declarative-broad-focus_Marta-abre-el-regalo.wav,./stim/wavs/chilean_match_declarative-broad-focus_Marta-abre-el-regalo.wav,./stim/wavs/cuban_match_declarative-broad-focus_Marta-abre-el-regalo.wav,./stim/wavs/mexican_match_declarative-broad-focus_Marta-abre-el-regalo.wav,./stim/wavs/peruvian_match_declarative-broad-focus_Marta-abre-el-regalo.wav,./stim/wavs/puertorican_match_declarative-broad-focus_Marta-abre-el-regalo.wav
,,,,,,,5efb6e6f2730140ce8e7260c,602ab2f3ccc37d12d58ba79b,602b40d79070c126381cbf64,chileno,si,2021-02-16_00h50.44.585,empathy_intonation_perc_sp,2020.2.10,MacIntel,60,,,,,,,,,,1,puertorican,1,1,2.11767,0,56,56,62,1,63,./stim/wavs/andalusian_mismatch_interrogative-total-yn_Mi-novio-viene-del-lago.wav,./stim/wavs/argentine_mismatch_interrogative-total-yn_Mi-novio-viene-del-lago.wav,./stim/wavs/castilian_mismatch_interrogative-total-yn_Mi-novio-viene-del-lago.wav,./stim/wavs/chilean_mismatch_interrogative-total-yn_Mi-novio-viene-del-lago.wav,./stim/wavs/cuban_mismatch_interrogative-total-yn_Mi-novio-viene-del-lago.wav,./stim/wavs/mexican_mismatch_interrogative-total-yn_Mi-novio-viene-del-lago.wav,./stim/wavs/peruvian_mismatch_interrogative-total-yn_Mi-novio-viene-del-lago.wav,./stim/wavs/puertorican_mismatch_interrogative-total-yn_Mi-novio-viene-del-lago.wav
,,,,,,,5efb6e6f2730140ce8e7260c,602ab2f3ccc37d12d58ba79b,602b40d79070c126381cbf64,chileno,si,2021-02-16_00h50.44.585,empathy_intonation_perc_sp,2020.2.10,MacIntel,60,,,,,,,,,,1,puertorican,1,1,1.56569,0,57,57,27,1,28,./stim/wavs/andalusian_match_interrogative-total-yn_Emilio-ama-la-marcha.wav,./stim/wavs/argentine_match_interrogative-total-yn_Emilio-ama-la-marcha.wav,./stim/wavs/castilian_match_interrogative-total-yn_Emilio-ama-la-marcha.wav,./stim/wavs/chilean_match_interrogative-total-yn_Emilio-ama-la-marcha.wav,./stim/wavs/cuban_match_interrogative-total-yn_Emilio-ama-la-marcha.wav,./stim/wavs/mexican_match_interrogative-total-yn_Emilio-ama-la-marcha.wav,./stim/wavs/peruvian_match_interrogative-total-yn_Emilio-ama-la-marcha.wav,./stim/wavs/puertorican_match_interrogative-total-yn_Emilio-ama-la-marcha.wav
,,,,,,,5efb6e6f2730140ce8e7260c,602ab2f3ccc37d12d58ba79b,602b40d79070c126381cbf64,chileno,si,2021-02-16_00h50.44.585,empathy_intonation_perc_sp,2020.2.10,MacIntel,60,,,,,,,,,,1,chilean,1,1,1.505305,0,58,58,49,1,50,./stim/wavs/andalusian_mismatch_interrogative-partial-wh_Cuando-lavaba-el-plato.wav,./stim/wavs/argentine_mismatch_interrogative-partial-wh_Cuando-lavaba-el-plato.wav,./stim/wavs/castilian_mismatch_interrogative-partial-wh_Cuando-lavaba-el-plato.wav,./stim/wavs/chilean_mismatch_interrogative-partial-wh_Cuando-lavaba-el-plato.wav,./stim/wavs/cuban_mismatch_interrogative-partial-wh_Cuando-lavaba-el-plato.wav,./stim/wavs/mexican_mismatch_interrogative-partial-wh_Cuando-lavaba-el-plato.wav,./stim/wavs/peruvian_mismatch_interrogative-partial-wh_Cuando-lavaba-el-plato.wav,./stim/wavs/puertorican_mismatch_interrogative-partial-wh_Cuando-lavaba-el-plato.wav
,,,,,,,5efb6e6f2730140ce8e7260c,602ab2f3ccc37d12d58ba79b,602b40d79070c126381cbf64,chileno,si,2021-02-16_00h50.44.585,empathy_intonation_perc_sp,2020.2.10,MacIntel,60,,,,,,,,,,1,puertorican,1,1,1.416885,0,59,59,60,1,61,./stim/wavs/andalusian_mismatch_interrogative-total-yn_La-nina-lava-el-plato.wav,./stim/wavs/argentine_mismatch_interrogative-total-yn_La-nina-lava-el-plato.wav,./stim/wavs/castilian_mismatch_interrogative-total-yn_La-nina-lava-el-plato.wav,./stim/wavs/chilean_mismatch_interrogative-total-yn_La-nina-lava-el-plato.wav,./stim/wavs/cuban_mismatch_interrogative-total-yn_La-nina-lava-el-plato.wav,./stim/wavs/mexican_mismatch_interrogative-total-yn_La-nina-lava-el-plato.wav,./stim/wavs/peruvian_mismatch_interrogative-total-yn_La-nina-lava-el-plato.wav,./stim/wavs/puertorican_mismatch_interrogative-total-yn_La-nina-lava-el-plato.wav
,,,,,,,5efb6e6f2730140ce8e7260c,602ab2f3ccc37d12d58ba79b,602b40d79070c126381cbf64,chileno,si,2021-02-16_00h50.44.585,empathy_intonation_perc_sp,2020.2.10,MacIntel,60,,,,,,,,,,1,cuban,1,1,1.481395,0,60,60,48,1,49,./stim/wavs/andalusian_mismatch_interrogative-partial-wh_Cuando-comia-la-fruta.wav,./stim/wavs/argentine_mismatch_interrogative-partial-wh_Cuando-comia-la-fruta.wav,./stim/wavs/castilian_mismatch_interrogative-partial-wh_Cuando-comia-la-fruta.wav,./stim/wavs/chilean_mismatch_interrogative-partial-wh_Cuando-comia-la-fruta.wav,./stim/wavs/cuban_mismatch_interrogative-partial-wh_Cuando-comia-la-fruta.wav,./stim/wavs/mexican_mismatch_interrogative-partial-wh_Cuando-comia-la-fruta.wav,./stim/wavs/peruvian_mismatch_interrogative-partial-wh_Cuando-comia-la-fruta.wav,./stim/wavs/puertorican_mismatch_interrogative-partial-wh_Cuando-comia-la-fruta.wav
,,,,,,,5efb6e6f2730140ce8e7260c,602ab2f3ccc37d12d58ba79b,602b40d79070c126381cbf64,chileno,si,2021-02-16_00h50.44.585,empathy_intonation_perc_sp,2020.2.10,MacIntel,60,,,,,,,,,,0,puertorican,0,1,1.50428,0,61,61,38,1,39,./stim/wavs/andalusian_mismatch_declarative-broad-focus_Mi-novio-viene-del-lago.wav,./stim/wavs/argentine_mismatch_declarative-broad-focus_Mi-novio-viene-del-lago.wav,./stim/wavs/castilian_mismatch_declarative-broad-focus_Mi-novio-viene-del-lago.wav,./stim/wavs/chilean_mismatch_declarative-broad-focus_Mi-novio-viene-del-lago.wav,./stim/wavs/cuban_mismatch_declarative-broad-focus_Mi-novio-viene-del-lago.wav,./stim/wavs/mexican_mismatch_declarative-broad-focus_Mi-novio-viene-del-lago.wav,./stim/wavs/peruvian_mismatch_declarative-broad-focus_Mi-novio-viene-del-lago.wav,./stim/wavs/puertorican_mismatch_declarative-broad-focus_Mi-novio-viene-del-lago.wav
,,,,,,,5efb6e6f2730140ce8e7260c,602ab2f3ccc37d12d58ba79b,602b40d79070c126381cbf64,chileno,si,2021-02-16_00h50.44.585,empathy_intonation_perc_sp,2020.2.10,MacIntel,60,,,,,,,,,,1,chilean,1,1,1.712795,0,62,62,63,1,64,./stim/wavs/andalusian_mismatch_interrogative-total-yn_Mi-tia-odia-la-lluvia.wav,./stim/wavs/argentine_mismatch_interrogative-total-yn_Mi-tia-odia-la-lluvia.wav,./stim/wavs/castilian_mismatch_interrogative-total-yn_Mi-tia-odia-la-lluvia.wav,./stim/wavs/chilean_mismatch_interrogative-total-yn_Mi-tia-odia-la-lluvia.wav,./stim/wavs/cuban_mismatch_interrogative-total-yn_Mi-tia-odia-la-lluvia.wav,./stim/wavs/mexican_mismatch_interrogative-total-yn_Mi-tia-odia-la-lluvia.wav,./stim/wavs/peruvian_mismatch_interrogative-total-yn_Mi-tia-odia-la-lluvia.wav,./stim/wavs/puertorican_mismatch_interrogative-total-yn_Mi-tia-odia-la-lluvia.wav
,,,,,,,5efb6e6f2730140ce8e7260c,602ab2f3ccc37d12d58ba79b,602b40d79070c126381cbf64,chileno,si,2021-02-16_00h50.44.585,empathy_intonation_perc_sp,2020.2.10,MacIntel,60,,,,,,,,,,0,chilean,0,1,1.706265,0,63,63,47,1,48,./stim/wavs/andalusian_mismatch_declarative-narrow-focus_Mi-tia-odia-la-lluvia.wav,./stim/wavs/argentine_mismatch_declarative-narrow-focus_Mi-tia-odia-la-lluvia.wav,./stim/wavs/castilian_mismatch_declarative-narrow-focus_Mi-tia-odia-la-lluvia.wav,./stim/wavs/chilean_mismatch_declarative-narrow-focus_Mi-tia-odia-la-lluvia.wav,./stim/wavs/cuban_mismatch_declarative-narrow-focus_Mi-tia-odia-la-lluvia.wav,./stim/wavs/mexican_mismatch_declarative-narrow-focus_Mi-tia-odia-la-lluvia.wav,./stim/wavs/peruvian_mismatch_declarative-narrow-focus_Mi-tia-odia-la-lluvia.wav,./stim/wavs/puertorican_mismatch_declarative-narrow-focus_Mi-tia-odia-la-lluvia.wav
