stim_n,sentence_type,condition,prompt,sentence,color,stim_loop.thisRepN,stim_loop.thisTrialN,stim_loop.thisN,stim_loop.thisIndex,fillers_loop.thisRepN,fillers_loop.thisTrialN,fillers_loop.thisN,fillers_loop.thisIndex,text_stim_stim_n.started,text_stim_stim_n.stopped,text_stim_sentence_type.started,text_stim_sentence_type.stopped,text_stim_condition.started,text_stim_condition.stopped,text_stim_prompt.started,text_stim_prompt.stopped,text_stim_sentence.started,text_stim_sentence.stopped,participant,session,date,expName,psychopyVersion,frameRate,
1,statement,A,filler,Roberto cocina por la mañana.,white,,,,,0,0,0,0,363.19594209699426,None,363.19594209699426,None,363.19594209699426,None,363.19594209699426,None,363.24575158499647,None,pr,001,2020_Nov_20_1613,text_stim_for_audio,2020.2.5,60.082296649330175,
2,statement,B,filler,Ana practicaba el yoga.,white,,,,,0,1,1,1,366.8796300239628,None,366.8796300239628,None,366.8796300239628,None,366.8796300239628,None,366.9111357219517,None,pr,001,2020_Nov_20_1613,text_stim_for_audio,2020.2.5,60.082296649330175,
3,statement,A,filler,La niña pinta con su amiga.,white,,,,,0,2,2,2,370.56200220499886,None,370.56200220499886,None,370.56200220499886,None,370.56200220499886,None,370.57861941697774,None,pr,001,2020_Nov_20_1613,text_stim_for_audio,2020.2.5,60.082296649330175,
4,statement,C,filler,Las chicas dan una fiesta hoy.,white,,,,,0,3,3,3,373.8952597689931,None,373.8952597689931,None,373.8952597689931,None,373.8952597689931,None,373.9139860649593,None,pr,001,2020_Nov_20_1613,text_stim_for_audio,2020.2.5,60.082296649330175,
5,statement,A,filler,Isabel duerme por muchas horas.,white,,,,,0,4,4,4,377.3784413259709,None,377.3784413259709,None,377.3784413259709,None,377.3784413259709,None,377.39504348195624,None,pr,001,2020_Nov_20_1613,text_stim_for_audio,2020.2.5,60.082296649330175,
6,statement,B,filler,Alberto nunca se afeita.,white,,,,,0,5,5,5,381.0125686429674,None,381.0125686429674,None,381.0125686429674,None,381.0125686429674,None,381.0283493869938,None,pr,001,2020_Nov_20_1613,text_stim_for_audio,2020.2.5,60.082296649330175,
7,statement,A,filler,La madre pasa la aspiradora.,white,,,,,0,6,6,6,384.0132771519711,None,384.0132771519711,None,384.0132771519711,None,384.0132771519711,None,384.04624767397763,None,pr,001,2020_Nov_20_1613,text_stim_for_audio,2020.2.5,60.082296649330175,
8,statement,C,filler,El estudiante odia la tarea.,white,,,,,0,7,7,7,387.2614611259778,None,387.2614611259778,None,387.2614611259778,None,387.2614611259778,None,387.2780363089987,None,pr,001,2020_Nov_20_1613,text_stim_for_audio,2020.2.5,60.082296649330175,
9,statement,A,filler,El equipo practica mucho.,white,,,,,0,8,8,8,390.3114736889838,None,390.3114736889838,None,390.3114736889838,None,390.3114736889838,None,390.3452987250057,None,pr,001,2020_Nov_20_1613,text_stim_for_audio,2020.2.5,60.082296649330175,
10,statement,B,filler,Juana barría el piso.,white,,,,,0,9,9,9,393.19467780698324,None,393.19467780698324,None,393.19467780698324,None,393.19467780698324,None,393.21130015997915,None,pr,001,2020_Nov_20_1613,text_stim_for_audio,2020.2.5,60.082296649330175,
11,statement,A,filler,La abuela plancha la ropa.,white,,,,,0,10,10,10,396.5612920880085,None,396.5612920880085,None,396.5612920880085,None,396.5612920880085,None,396.5968903359608,None,pr,001,2020_Nov_20_1613,text_stim_for_audio,2020.2.5,60.082296649330175,
12,statement,C,filler,Los abuelos compran un espejo.,white,,,,,0,11,11,11,399.5111254559597,None,399.5111254559597,None,399.5111254559597,None,399.5111254559597,None,399.5277919860091,None,pr,001,2020_Nov_20_1613,text_stim_for_audio,2020.2.5,60.082296649330175,
13,statement,A,filler,El niño habla con su madre.,white,,,,,0,12,12,12,403.2785084209754,None,403.2785084209754,None,403.2785084209754,None,403.2785084209754,None,403.3131681159721,None,pr,001,2020_Nov_20_1613,text_stim_for_audio,2020.2.5,60.082296649330175,
14,statement,B,filler,Hago ejercicio todos los días. ,white,,,,,0,13,13,13,406.0943564219633,None,406.0943564219633,None,406.0943564219633,None,406.0943564219633,None,406.1109845659812,None,pr,001,2020_Nov_20_1613,text_stim_for_audio,2020.2.5,60.082296649330175,
15,statement,A,filler,La vista de la casa es bonita.,white,,,,,0,14,14,14,410.344128547993,None,410.344128547993,None,410.344128547993,None,410.344128547993,None,410.36122404399794,None,pr,001,2020_Nov_20_1613,text_stim_for_audio,2020.2.5,60.082296649330175,
16,statement,B,filler,El baño no es muy grande. ,white,,,,,0,15,15,15,414.14469936396927,None,414.14469936396927,None,414.14469936396927,None,414.14469936396927,None,414.1576853870065,None,pr,001,2020_Nov_20_1613,text_stim_for_audio,2020.2.5,60.082296649330175,
17,statement,A,filler,Compro un regalo para Navidad.,white,,,,,0,16,16,16,416.69487191096414,None,416.69487191096414,None,416.69487191096414,None,416.69487191096414,None,416.7291942059528,None,pr,001,2020_Nov_20_1613,text_stim_for_audio,2020.2.5,60.082296649330175,
18,statement,C,filler,Tu cumpleaños es mañana.,white,,,,,0,17,17,17,419.81050435698126,None,419.81050435698126,None,419.81050435698126,None,419.81050435698126,None,419.82712388195796,None,pr,001,2020_Nov_20_1613,text_stim_for_audio,2020.2.5,60.082296649330175,
19,statement,C,filler,Nadamos en la piscina por la tarde.,white,,,,,0,18,18,18,423.2104828300071,None,423.2104828300071,None,423.2104828300071,None,423.2104828300071,None,423.2271200569812,None,pr,001,2020_Nov_20_1613,text_stim_for_audio,2020.2.5,60.082296649330175,
20,statement,A,filler,Karina siempre anda en bicicleta.,white,,,,,0,19,19,19,426.7103027239791,None,426.7103027239791,None,426.7103027239791,None,426.7103027239791,None,426.72846922895405,None,pr,001,2020_Nov_20_1613,text_stim_for_audio,2020.2.5,60.082296649330175,
21,statement,B,filler,Los niños ganan el partido.,white,,,,,0,20,20,20,430.0462187209632,None,430.0462187209632,None,430.0462187209632,None,430.0462187209632,None,430.05843106098473,None,pr,001,2020_Nov_20_1613,text_stim_for_audio,2020.2.5,60.082296649330175,
22,statement,A,filler,Cocinabas por la noche.,white,,,,,0,21,21,21,433.4112425939529,None,433.4112425939529,None,433.4112425939529,None,433.4112425939529,None,433.4433955819695,None,pr,001,2020_Nov_20_1613,text_stim_for_audio,2020.2.5,60.082296649330175,
23,statement,A,filler,Dibujabas con tu amiga.,white,,,,,0,22,22,22,436.4603580069961,None,436.4603580069961,None,436.4603580069961,None,436.4603580069961,None,436.49717033997877,None,pr,001,2020_Nov_20_1613,text_stim_for_audio,2020.2.5,60.082296649330175,
24,statement,C,filler,El hombre da un paseo. ,white,,,,,0,23,23,23,439.17670770396944,None,439.17670770396944,None,439.17670770396944,None,439.17670770396944,None,439.2094128789613,None,pr,001,2020_Nov_20_1613,text_stim_for_audio,2020.2.5,60.082296649330175,
25,statement,A,filler,Compramos en el supermercado.,white,,,,,0,24,24,24,441.6935937269591,None,441.6935937269591,None,441.6935937269591,None,441.6935937269591,None,441.7067185000051,None,pr,001,2020_Nov_20_1613,text_stim_for_audio,2020.2.5,60.082296649330175,
26,statement,B,filler,Mateo piensa en las compras.,white,,,,,0,25,25,25,445.176328431,None,445.176328431,None,445.176328431,None,445.176328431,None,445.1930150159751,None,pr,001,2020_Nov_20_1613,text_stim_for_audio,2020.2.5,60.082296649330175,
27,statement,A,filler,Emilia va al hospital.,white,,,,,0,26,26,26,448.29374418698717,None,448.29374418698717,None,448.29374418698717,None,448.29374418698717,None,448.3095540109789,None,pr,001,2020_Nov_20_1613,text_stim_for_audio,2020.2.5,60.082296649330175,
28,statement,C,filler,El hotel tiene muchas habitaciones. ,white,,,,,0,27,27,27,450.909690786968,None,450.909690786968,None,450.909690786968,None,450.909690786968,None,450.9270940179704,None,pr,001,2020_Nov_20_1613,text_stim_for_audio,2020.2.5,60.082296649330175,
29,statement,A,filler,El abrigo es muy barato. ,white,,,,,0,28,28,28,454.1765743769938,None,454.1765743769938,None,454.1765743769938,None,454.1765743769938,None,454.1898233539541,None,pr,001,2020_Nov_20_1613,text_stim_for_audio,2020.2.5,60.082296649330175,
30,statement,B,filler,La discoteca es muy buena.,white,,,,,0,29,29,29,457.59281377197476,None,457.59281377197476,None,457.59281377197476,None,457.59281377197476,None,457.6278187179705,None,pr,001,2020_Nov_20_1613,text_stim_for_audio,2020.2.5,60.082296649330175,
31,statement,A,filler,La ciudad tiene dos bancos.,white,,,,,0,30,30,30,460.50929529295536,None,460.50929529295536,None,460.50929529295536,None,460.50929529295536,None,460.5259607809712,None,pr,001,2020_Nov_20_1613,text_stim_for_audio,2020.2.5,60.082296649330175,
32,statement,C,filler,Luis trabaja todo el día.,white,,,,,0,31,31,31,463.52575866499683,None,463.52575866499683,None,463.52575866499683,None,463.52575866499683,None,463.5430798949674,None,pr,001,2020_Nov_20_1613,text_stim_for_audio,2020.2.5,60.082296649330175,
33,question,C,filler,¿Ella compra una mochila?,white,,,,,0,32,32,32,467.5608172349748,None,467.5608172349748,None,467.5608172349748,None,467.5608172349748,None,467.59389692597324,None,pr,001,2020_Nov_20_1613,text_stim_for_audio,2020.2.5,60.082296649330175,
34,question,A,filler,¿Mi padre cantaba bien?,white,,,,,0,33,33,33,470.64380193897523,None,470.64380193897523,None,470.64380193897523,None,470.64380193897523,None,470.6726505449624,None,pr,001,2020_Nov_20_1613,text_stim_for_audio,2020.2.5,60.082296649330175,
35,question,B,filler,¿La vecina sale muy temprano? ,white,,,,,0,34,34,34,475.2920860769809,None,475.2920860769809,None,475.2920860769809,None,475.2920860769809,None,475.30923308298225,None,pr,001,2020_Nov_20_1613,text_stim_for_audio,2020.2.5,60.082296649330175,
36,question,A,filler,¿Mi amiga mira la luna?,white,,,,,0,35,35,35,479.1753442559857,None,479.1753442559857,None,479.1753442559857,None,479.1753442559857,None,479.1919489779975,None,pr,001,2020_Nov_20_1613,text_stim_for_audio,2020.2.5,60.082296649330175,
37,question,B,filler,¿Lucía va a la iglesia?,white,,,,,0,36,36,36,482.39225661795354,None,482.39225661795354,None,482.39225661795354,None,482.39225661795354,None,482.4254920319654,None,pr,001,2020_Nov_20_1613,text_stim_for_audio,2020.2.5,60.082296649330175,
38,question,A,filler,¿Mi vecino habla mucho?,white,,,,,0,37,37,37,485.2585705780075,None,485.2585705780075,None,485.2585705780075,None,485.2585705780075,None,485.27517711900873,None,pr,001,2020_Nov_20_1613,text_stim_for_audio,2020.2.5,60.082296649330175,
39,question,C,filler,¿El estudiante toma apuntes?,white,,,,,0,38,38,38,488.57898216700414,None,488.57898216700414,None,488.57898216700414,None,488.57898216700414,None,488.5903752819868,None,pr,001,2020_Nov_20_1613,text_stim_for_audio,2020.2.5,60.082296649330175,
40,question,A,filler,¿La chica abre su libro?,white,,,,,0,39,39,39,492.3928075649892,None,492.3928075649892,None,492.3928075649892,None,492.3928075649892,None,492.4053339919774,None,pr,001,2020_Nov_20_1613,text_stim_for_audio,2020.2.5,60.082296649330175,
41,question,B,filler,¿Sandra corre en el parque?,white,,,,,0,40,40,40,495.2418118529604,None,495.2418118529604,None,495.2418118529604,None,495.2418118529604,None,495.2582788449945,None,pr,001,2020_Nov_20_1613,text_stim_for_audio,2020.2.5,60.082296649330175,
42,question,A,filler,¿Mi amigo no comía pollo?,white,,,,,0,41,41,41,499.3753903619945,None,499.3753903619945,None,499.3753903619945,None,499.3753903619945,None,499.40887369797565,None,pr,001,2020_Nov_20_1613,text_stim_for_audio,2020.2.5,60.082296649330175,
43,question,C,filler,¿Carlos escribe una carta?,white,,,,,0,42,42,42,503.441813464975,None,503.441813464975,None,503.441813464975,None,503.441813464975,None,503.47568637598306,None,pr,001,2020_Nov_20_1613,text_stim_for_audio,2020.2.5,60.082296649330175,
44,question,A,filler,¿Jose visitaba la playa?,white,,,,,0,43,43,43,507.2077131389524,None,507.2077131389524,None,507.2077131389524,None,507.2077131389524,None,507.2443986599683,None,pr,001,2020_Nov_20_1613,text_stim_for_audio,2020.2.5,60.082296649330175,
45,question,B,filler,¿Mi hermano cierra la puerta?,white,,,,,0,44,44,44,511.3301469179569,None,511.3301469179569,None,511.3301469179569,None,511.3301469179569,None,511.3547105289763,None,pr,001,2020_Nov_20_1613,text_stim_for_audio,2020.2.5,60.082296649330175,
46,question,A,filler,¿El chico escribía una carta?,white,,,,,0,45,45,45,514.4079901539953,None,514.4079901539953,None,514.4079901539953,None,514.4079901539953,None,514.4242616209667,None,pr,001,2020_Nov_20_1613,text_stim_for_audio,2020.2.5,60.082296649330175,
47,question,C,filler,¿Mi vecino trae comida?,white,,,,,0,46,46,46,569.4059711729642,None,569.4059711729642,None,569.4059711729642,None,569.4059711729642,None,569.4226082129753,None,pr,001,2020_Nov_20_1613,text_stim_for_audio,2020.2.5,60.082296649330175,
48,question,A,filler,¿Carlos trae a sus hijos? ,white,,,,,0,47,47,47,594.85600978398,None,594.85600978398,None,594.85600978398,None,594.85600978398,None,594.8688150329981,None,pr,001,2020_Nov_20_1613,text_stim_for_audio,2020.2.5,60.082296649330175,
49,question,B,filler,¿Jaime tenía una tienda?,white,,,,,0,48,48,48,609.2214819059591,None,609.2214819059591,None,609.2214819059591,None,609.2214819059591,None,609.238052250992,None,pr,001,2020_Nov_20_1613,text_stim_for_audio,2020.2.5,60.082296649330175,
50,question,A,filler,¿Juan quiere un bistec?,white,,,,,0,49,49,49,612.4752468069782,None,612.4752468069782,None,612.4752468069782,None,612.4752468069782,None,612.486915433954,None,pr,001,2020_Nov_20_1613,text_stim_for_audio,2020.2.5,60.082296649330175,
51,question,A,filler,¿Carolina baila flamenco? ,white,,,,,0,50,50,50,617.4398627759656,None,617.4398627759656,None,617.4398627759656,None,617.4398627759656,None,617.4717000449891,None,pr,001,2020_Nov_20_1613,text_stim_for_audio,2020.2.5,60.082296649330175,
52,question,B,filler,¿Mi familia cenaba tarde?,white,,,,,0,51,51,51,620.9877534129773,None,620.9877534129773,None,620.9877534129773,None,620.9877534129773,None,621.0043037199648,None,pr,001,2020_Nov_20_1613,text_stim_for_audio,2020.2.5,60.082296649330175,
53,question,C,filler,¿Pablo lavaba su coche? ,white,,,,,0,52,52,52,624.8709153719828,None,624.8709153719828,None,624.8709153719828,None,624.8709153719828,None,624.8876039639581,None,pr,001,2020_Nov_20_1613,text_stim_for_audio,2020.2.5,60.082296649330175,
54,question,A,filler,¿El equipo gana la competencia?,white,,,,,0,53,53,53,628.8373209139681,None,628.8373209139681,None,628.8373209139681,None,628.8373209139681,None,628.8567741320003,None,pr,001,2020_Nov_20_1613,text_stim_for_audio,2020.2.5,60.082296649330175,
55,question,C,filler,¿Rogelio cuida a los niños? ,white,,,,,0,54,54,54,633.7545308469562,None,633.7545308469562,None,633.7545308469562,None,633.7545308469562,None,633.7892334139906,None,pr,001,2020_Nov_20_1613,text_stim_for_audio,2020.2.5,60.082296649330175,
56,question,A,filler,¿Maria se peina en la mañana?,white,,,,,0,55,55,55,636.7205775110051,None,636.7205775110051,None,636.7205775110051,None,636.7205775110051,None,636.7549486960052,None,pr,001,2020_Nov_20_1613,text_stim_for_audio,2020.2.5,60.082296649330175,
57,question,B,filler,¿Lucía compra el jabón?,white,,,,,0,56,56,56,639.9372381859575,None,639.9372381859575,None,639.9372381859575,None,639.9372381859575,None,639.953689300979,None,pr,001,2020_Nov_20_1613,text_stim_for_audio,2020.2.5,60.082296649330175,
58,question,A,filler,¿A Jaime le gusta su piso?,white,,,,,0,57,57,57,643.004296277999,None,643.004296277999,None,643.004296277999,None,643.004296277999,None,643.0172307209577,None,pr,001,2020_Nov_20_1613,text_stim_for_audio,2020.2.5,60.082296649330175,
59,question,C,filler,¿Isabel puede apagar la luz?,white,,,,,0,58,58,58,646.1701598269865,None,646.1701598269865,None,646.1701598269865,None,646.1701598269865,None,646.1869555659941,None,pr,001,2020_Nov_20_1613,text_stim_for_audio,2020.2.5,60.082296649330175,
60,question,A,filler,¿Felipe no tiene contraseña?,white,,,,,0,59,59,59,649.5717550079571,None,649.5717550079571,None,649.5717550079571,None,649.5717550079571,None,649.5867054449627,None,pr,001,2020_Nov_20_1613,text_stim_for_audio,2020.2.5,60.082296649330175,
61,question,B,filler,¿El estudiante practica deportes?,white,,,,,0,60,60,60,653.1882731529768,None,653.1882731529768,None,653.1882731529768,None,653.1882731529768,None,653.2199232049752,None,pr,001,2020_Nov_20_1613,text_stim_for_audio,2020.2.5,60.082296649330175,
62,question,A,filler,¿Sofia no quiere la revista?,white,,,,,0,61,61,61,657.0691175879911,None,657.0691175879911,None,657.0691175879911,None,657.0691175879911,None,657.0864951759577,None,pr,001,2020_Nov_20_1613,text_stim_for_audio,2020.2.5,60.082296649330175,
63,question,C,filler,¿Mi esposo conoce al chico?,white,,,,,0,62,62,62,661.1864215629757,None,661.1864215629757,None,661.1864215629757,None,661.1864215629757,None,661.2031219479977,None,pr,001,2020_Nov_20_1613,text_stim_for_audio,2020.2.5,60.082296649330175,
64,question,A,filler,¿Mi hija prefiere los perros?,white,,,,,0,63,63,63,664.8202280380065,None,664.8202280380065,None,664.8202280380065,None,664.8202280380065,None,664.8364592659636,None,pr,001,2020_Nov_20_1613,text_stim_for_audio,2020.2.5,60.082296649330175,
