instructions_2afc_loop.thisRepN,instructions_2afc_loop.thisTrialN,instructions_2afc_loop.thisN,instructions_2afc_loop.thisIndex,instructions_2afc_loop.ran,instructions_text,continue_text,participant,What variety of Spanish are you most familiar with?*,What variety of English do you speak?*,At what age did you begin learning Spanish?*,Are you proficient in any languages other than English/Spanish (yes/no)?*,date,expName,psychopyVersion,OS,frameRate,key_resp_2afc_practice.keys,key_resp_2afc_practice.corr,key_resp_2afc_practice.rt,trials_2afc_practice_loop.thisRepN,trials_2afc_practice_loop.thisTrialN,trials_2afc_practice_loop.thisN,trials_2afc_practice_loop.thisIndex,trials_2afc_practice_loop.ran,path,correct_response,the_col,key_resp_2afc_trial.keys,key_resp_2afc_trial.corr,key_resp_2afc_trial.rt,trials_2afc_loop.thisRepN,trials_2afc_loop.thisTrialN,trials_2afc_loop.thisN,trials_2afc_loop.thisIndex,trials_2afc_loop.ran,item_num,andalusian,argentine,castilian,chilean,cuban,mexican,peruvian,puertorican,key_resp_ac1.keys,key_resp_ac1.corr,key_resp_ac1.rt,ac1_loop.thisRepN,ac1_loop.thisTrialN,ac1_loop.thisN,ac1_loop.thisIndex,ac1_loop.ran,instructions_lextale_loop.thisRepN,instructions_lextale_loop.thisTrialN,instructions_lextale_loop.thisN,instructions_lextale_loop.thisIndex,instructions_lextale_loop.ran,key_resp_lextale_practice.keys,key_resp_lextale_practice.corr,key_resp_lextale_practice.rt,trials_lextale_practice_loop.thisRepN,trials_lextale_practice_loop.thisTrialN,trials_lextale_practice_loop.thisN,trials_lextale_practice_loop.thisIndex,trials_lextale_practice_loop.ran,stim,word,prac_button_real,prac_button_false,key_resp_lextale_trial.keys,key_resp_lextale_trial.corr,key_resp_lextale_trial.rt,trials_lextale_loop.thisRepN,trials_lextale_loop.thisTrialN,trials_lextale_loop.thisN,trials_lextale_loop.thisIndex,trials_lextale_loop.ran,button_real,button_false,key_resp_ac2.keys,key_resp_ac2.corr,key_resp_ac2.rt,check_pass,check_fails,ac2_loop.thisRepN,ac2_loop.thisTrialN,ac2_loop.thisN,ac2_loop.thisIndex,ac2_loop.ran,slider_eq_trial.response,trials_eq_loop.thisRepN,trials_eq_loop.thisTrialN,trials_eq_loop.thisN,trials_eq_loop.thisIndex,trials_eq_loop.ran,item,is_test_item,is_distractor,is_agree_score,is_disagree_score
0,0,0,0,1,"In the following task you are going to hear a series of utterances. 

  You will decide if the utterances sound like questions or not using your keyboard.",(press the spacebar to continue),jvc198,Mexican,Southern English,15,no,2021-02-14_13h41.01.370,empathy_intonation_perc,2020.2.10,MacIntel,60,,,,,,,,,,,,,,,,,,,,,,,,,,,,,,,,,,,,,,,,,,,,,,,,,,,,,,,,,,,,,,,,,,,,,,,,,,,,,,,,,,,,
0,1,1,1,1,"If you believe the utterance is a question, type '1' (for 'yes') and if you do not 
  believe it is a question type '0' (for 'no').

  Let's practice a bit...",(press the spacebar to continue),jvc198,Mexican,Southern English,15,no,2021-02-14_13h41.01.370,empathy_intonation_perc,2020.2.10,MacIntel,60,,,,,,,,,,,,,,,,,,,,,,,,,,,,,,,,,,,,,,,,,,,,,,,,,,,,,,,,,,,,,,,,,,,,,,,,,,,,,,,,,,,,
,,,,,,,jvc198,Mexican,Southern English,15,no,2021-02-14_13h41.01.370,empathy_intonation_perc,2020.2.10,MacIntel,60,0,1,0.945275,0,0,0,6,1,./stim/wavs/peruvian_statement_filler_El-nino-habla-con-su-madre.wav,0,,,,,,,,,,,,,,,,,,,,,,,,,,,,,,,,,,,,,,,,,,,,,,,,,,,,,,,,,,,,,,,,,,,,,,,,,,
,,,,,,,jvc198,Mexican,Southern English,15,no,2021-02-14_13h41.01.370,empathy_intonation_perc,2020.2.10,MacIntel,60,0,1,0.117225,0,1,1,4,1,./stim/wavs/cuban_statement_filler_Cocinabas-por-la-noche.wav,0,,,,,,,,,,,,,,,,,,,,,,,,,,,,,,,,,,,,,,,,,,,,,,,,,,,,,,,,,,,,,,,,,,,,,,,,,,
,,,,,,,jvc198,Mexican,Southern English,15,no,2021-02-14_13h41.01.370,empathy_intonation_perc,2020.2.10,MacIntel,60,0,0,0.081105,0,2,2,1,1,./stim/wavs/argentine_question_filler_Mi-vecino-habla-mucho.wav,1,,,,,,,,,,,,,,,,,,,,,,,,,,,,,,,,,,,,,,,,,,,,,,,,,,,,,,,,,,,,,,,,,,,,,,,,,,
,,,,,,,jvc198,Mexican,Southern English,15,no,2021-02-14_13h41.01.370,empathy_intonation_perc,2020.2.10,MacIntel,60,0,1,0.005205,0,3,3,5,1,./stim/wavs/andalusian_statement_filler_Alberto-nunca-se-afeita.wav,0,,,,,,,,,,,,,,,,,,,,,,,,,,,,,,,,,,,,,,,,,,,,,,,,,,,,,,,,,,,,,,,,,,,,,,,,,,
,,,,,,,jvc198,Mexican,Southern English,15,no,2021-02-14_13h41.01.370,empathy_intonation_perc,2020.2.10,MacIntel,60,0,0,0.04478,0,4,4,0,1,./stim/wavs/castilian_question_filler_Mi-esposo-conoce-al-chico.wav,1,,,,,,,,,,,,,,,,,,,,,,,,,,,,,,,,,,,,,,,,,,,,,,,,,,,,,,,,,,,,,,,,,,,,,,,,,,
,,,,,,,jvc198,Mexican,Southern English,15,no,2021-02-14_13h41.01.370,empathy_intonation_perc,2020.2.10,MacIntel,60,0,1,0.045435,0,5,5,7,1,./stim/wavs/puertorican_statement_filler_La-nina-pinta-con-su-amiga.wav,0,,,,,,,,,,,,,,,,,,,,,,,,,,,,,,,,,,,,,,,,,,,,,,,,,,,,,,,,,,,,,,,,,,,,,,,,,,
,,,,,,,jvc198,Mexican,Southern English,15,no,2021-02-14_13h41.01.370,empathy_intonation_perc,2020.2.10,MacIntel,60,0,0,0.00064,0,6,6,3,1,./stim/wavs/mexican_question_filler_Felipe-no-tiene-contrasena.wav,1,,,,,,,,,,,,,,,,,,,,,,,,,,,,,,,,,,,,,,,,,,,,,,,,,,,,,,,,,,,,,,,,,,,,,,,,,,
,,,,,,,jvc198,Mexican,Southern English,15,no,2021-02-14_13h41.01.370,empathy_intonation_perc,2020.2.10,MacIntel,60,0,0,0.05233,0,7,7,2,1,./stim/wavs/chilean_question_filler_Mi-padre-cantaba-bien.wav,1,,,,,,,,,,,,,,,,,,,,,,,,,,,,,,,,,,,,,,,,,,,,,,,,,,,,,,,,,,,,,,,,,,,,,,,,,,
,,,,,,,jvc198,Mexican,Southern English,15,no,2021-02-14_13h41.01.370,empathy_intonation_perc,2020.2.10,MacIntel,60,,,,,,,,,,1,chilean,0,0,0.93874,0,0,0,53,1,54,./stim/wavs/andalusian_mismatch_interrogative-partial-wh_Por-que-oia-el-rio.wav,./stim/wavs/argentine_mismatch_interrogative-partial-wh_Por-que-oia-el-rio.wav,./stim/wavs/castilian_mismatch_interrogative-partial-wh_Por-que-oia-el-rio.wav,./stim/wavs/chilean_mismatch_interrogative-partial-wh_Por-que-oia-el-rio.wav,./stim/wavs/cuban_mismatch_interrogative-partial-wh_Por-que-oia-el-rio.wav,./stim/wavs/mexican_mismatch_interrogative-partial-wh_Por-que-oia-el-rio.wav,./stim/wavs/peruvian_mismatch_interrogative-partial-wh_Por-que-oia-el-rio.wav,./stim/wavs/puertorican_mismatch_interrogative-partial-wh_Por-que-oia-el-rio.wav,,,,,,,,,,,,,,,,,,,,,,,,,,,,,,,,,,,,,,,,,,,,,,,,,,,,,,,,
,,,,,,,jvc198,Mexican,Southern English,15,no,2021-02-14_13h41.01.370,empathy_intonation_perc,2020.2.10,MacIntel,60,,,,,,,,,,0,peruvian,0,1,0.31233,0,1,1,7,1,8,./stim/wavs/andalusian_match_declarative-broad-focus_Marta-abre-el-regalo.wav,./stim/wavs/argentine_match_declarative-broad-focus_Marta-abre-el-regalo.wav,./stim/wavs/castilian_match_declarative-broad-focus_Marta-abre-el-regalo.wav,./stim/wavs/chilean_match_declarative-broad-focus_Marta-abre-el-regalo.wav,./stim/wavs/cuban_match_declarative-broad-focus_Marta-abre-el-regalo.wav,./stim/wavs/mexican_match_declarative-broad-focus_Marta-abre-el-regalo.wav,./stim/wavs/peruvian_match_declarative-broad-focus_Marta-abre-el-regalo.wav,./stim/wavs/puertorican_match_declarative-broad-focus_Marta-abre-el-regalo.wav,,,,,,,,,,,,,,,,,,,,,,,,,,,,,,,,,,,,,,,,,,,,,,,,,,,,,,,,
,,,,,,,jvc198,Mexican,Southern English,15,no,2021-02-14_13h41.01.370,empathy_intonation_perc,2020.2.10,MacIntel,60,,,,,,,,,,1,castilian,1,1,2.05184,0,2,2,63,1,64,./stim/wavs/andalusian_mismatch_interrogative-total-yn_Mi-tia-odia-la-lluvia.wav,./stim/wavs/argentine_mismatch_interrogative-total-yn_Mi-tia-odia-la-lluvia.wav,./stim/wavs/castilian_mismatch_interrogative-total-yn_Mi-tia-odia-la-lluvia.wav,./stim/wavs/chilean_mismatch_interrogative-total-yn_Mi-tia-odia-la-lluvia.wav,./stim/wavs/cuban_mismatch_interrogative-total-yn_Mi-tia-odia-la-lluvia.wav,./stim/wavs/mexican_mismatch_interrogative-total-yn_Mi-tia-odia-la-lluvia.wav,./stim/wavs/peruvian_mismatch_interrogative-total-yn_Mi-tia-odia-la-lluvia.wav,./stim/wavs/puertorican_mismatch_interrogative-total-yn_Mi-tia-odia-la-lluvia.wav,,,,,,,,,,,,,,,,,,,,,,,,,,,,,,,,,,,,,,,,,,,,,,,,,,,,,,,,
,,,,,,,jvc198,Mexican,Southern English,15,no,2021-02-14_13h41.01.370,empathy_intonation_perc,2020.2.10,MacIntel,60,,,,,,,,,,0,cuban,0,1,2.195125,0,3,3,12,1,13,./stim/wavs/andalusian_match_declarative-narrow-focus_Manuela-vende-el-carro.wav,./stim/wavs/argentine_match_declarative-narrow-focus_Manuela-vende-el-carro.wav,./stim/wavs/castilian_match_declarative-narrow-focus_Manuela-vende-el-carro.wav,./stim/wavs/chilean_match_declarative-narrow-focus_Manuela-vende-el-carro.wav,./stim/wavs/cuban_match_declarative-narrow-focus_Manuela-vende-el-carro.wav,./stim/wavs/mexican_match_declarative-narrow-focus_Manuela-vende-el-carro.wav,./stim/wavs/peruvian_match_declarative-narrow-focus_Manuela-vende-el-carro.wav,./stim/wavs/puertorican_match_declarative-narrow-focus_Manuela-vende-el-carro.wav,,,,,,,,,,,,,,,,,,,,,,,,,,,,,,,,,,,,,,,,,,,,,,,,,,,,,,,,
,,,,,,,jvc198,Mexican,Southern English,15,no,2021-02-14_13h41.01.370,empathy_intonation_perc,2020.2.10,MacIntel,60,,,,,,,,,,1,cuban,0,0,1.06599,0,4,4,24,1,25,./stim/wavs/andalusian_match_interrogative-total-yn_Ana-lleva-el-abrigo.wav,./stim/wavs/argentine_match_interrogative-total-yn_Ana-lleva-el-abrigo.wav,./stim/wavs/castilian_match_interrogative-total-yn_Ana-lleva-el-abrigo.wav,./stim/wavs/chilean_match_interrogative-total-yn_Ana-lleva-el-abrigo.wav,./stim/wavs/cuban_match_interrogative-total-yn_Ana-lleva-el-abrigo.wav,./stim/wavs/mexican_match_interrogative-total-yn_Ana-lleva-el-abrigo.wav,./stim/wavs/peruvian_match_interrogative-total-yn_Ana-lleva-el-abrigo.wav,./stim/wavs/puertorican_match_interrogative-total-yn_Ana-lleva-el-abrigo.wav,,,,,,,,,,,,,,,,,,,,,,,,,,,,,,,,,,,,,,,,,,,,,,,,,,,,,,,,
,,,,,,,jvc198,Mexican,Southern English,15,no,2021-02-14_13h41.01.370,empathy_intonation_perc,2020.2.10,MacIntel,60,,,,,,,,,,1,andalusian,0,0,2.333505,0,5,5,55,1,56,./stim/wavs/andalusian_mismatch_interrogative-partial-wh_Por-que-vivia-en-Paris.wav,./stim/wavs/argentine_mismatch_interrogative-partial-wh_Por-que-vivia-en-Paris.wav,./stim/wavs/castilian_mismatch_interrogative-partial-wh_Por-que-vivia-en-Paris.wav,./stim/wavs/chilean_mismatch_interrogative-partial-wh_Por-que-vivia-en-Paris.wav,./stim/wavs/cuban_mismatch_interrogative-partial-wh_Por-que-vivia-en-Paris.wav,./stim/wavs/mexican_mismatch_interrogative-partial-wh_Por-que-vivia-en-Paris.wav,./stim/wavs/peruvian_mismatch_interrogative-partial-wh_Por-que-vivia-en-Paris.wav,./stim/wavs/puertorican_mismatch_interrogative-partial-wh_Por-que-vivia-en-Paris.wav,,,,,,,,,,,,,,,,,,,,,,,,,,,,,,,,,,,,,,,,,,,,,,,,,,,,,,,,
,,,,,,,jvc198,Mexican,Southern English,15,no,2021-02-14_13h41.01.370,empathy_intonation_perc,2020.2.10,MacIntel,60,,,,,,,,,,0,andalusian,0,1,3.081535,0,6,6,1,1,2,./stim/wavs/andalusian_match_declarative-broad-focus_Daniel-iba-a-Bolivia.wav,./stim/wavs/argentine_match_declarative-broad-focus_Daniel-iba-a-Bolivia.wav,./stim/wavs/castilian_match_declarative-broad-focus_Daniel-iba-a-Bolivia.wav,./stim/wavs/chilean_match_declarative-broad-focus_Daniel-iba-a-Bolivia.wav,./stim/wavs/cuban_match_declarative-broad-focus_Daniel-iba-a-Bolivia.wav,./stim/wavs/mexican_match_declarative-broad-focus_Daniel-iba-a-Bolivia.wav,./stim/wavs/peruvian_match_declarative-broad-focus_Daniel-iba-a-Bolivia.wav,./stim/wavs/puertorican_match_declarative-broad-focus_Daniel-iba-a-Bolivia.wav,,,,,,,,,,,,,,,,,,,,,,,,,,,,,,,,,,,,,,,,,,,,,,,,,,,,,,,,
,,,,,,,jvc198,Mexican,Southern English,15,no,2021-02-14_13h41.01.370,empathy_intonation_perc,2020.2.10,MacIntel,60,,,,,,,,,,1,mexican,0,0,0.95469,0,7,7,57,1,58,./stim/wavs/andalusian_mismatch_interrogative-total-yn_El-hombre-mira-la-luna.wav,./stim/wavs/argentine_mismatch_interrogative-total-yn_El-hombre-mira-la-luna.wav,./stim/wavs/castilian_mismatch_interrogative-total-yn_El-hombre-mira-la-luna.wav,./stim/wavs/chilean_mismatch_interrogative-total-yn_El-hombre-mira-la-luna.wav,./stim/wavs/cuban_mismatch_interrogative-total-yn_El-hombre-mira-la-luna.wav,./stim/wavs/mexican_mismatch_interrogative-total-yn_El-hombre-mira-la-luna.wav,./stim/wavs/peruvian_mismatch_interrogative-total-yn_El-hombre-mira-la-luna.wav,./stim/wavs/puertorican_mismatch_interrogative-total-yn_El-hombre-mira-la-luna.wav,,,,,,,,,,,,,,,,,,,,,,,,,,,,,,,,,,,,,,,,,,,,,,,,,,,,,,,,
,,,,,,,jvc198,Mexican,Southern English,15,no,2021-02-14_13h41.01.370,empathy_intonation_perc,2020.2.10,MacIntel,60,,,,,,,,,,0,cuban,0,1,0.566865,0,8,8,6,1,7,./stim/wavs/andalusian_match_declarative-broad-focus_Mariano-habla-del-tiempo.wav,./stim/wavs/argentine_match_declarative-broad-focus_Mariano-habla-del-tiempo.wav,./stim/wavs/castilian_match_declarative-broad-focus_Mariano-habla-del-tiempo.wav,./stim/wavs/chilean_match_declarative-broad-focus_Mariano-habla-del-tiempo.wav,./stim/wavs/cuban_match_declarative-broad-focus_Mariano-habla-del-tiempo.wav,./stim/wavs/mexican_match_declarative-broad-focus_Mariano-habla-del-tiempo.wav,./stim/wavs/peruvian_match_declarative-broad-focus_Mariano-habla-del-tiempo.wav,./stim/wavs/puertorican_match_declarative-broad-focus_Mariano-habla-del-tiempo.wav,,,,,,,,,,,,,,,,,,,,,,,,,,,,,,,,,,,,,,,,,,,,,,,,,,,,,,,,
,,,,,,,jvc198,Mexican,Southern English,15,no,2021-02-14_13h41.01.370,empathy_intonation_perc,2020.2.10,MacIntel,60,,,,,,,,,,0,argentine,0,1,0.138595,0,9,9,47,1,48,./stim/wavs/andalusian_mismatch_declarative-narrow-focus_Mi-tia-odia-la-lluvia.wav,./stim/wavs/argentine_mismatch_declarative-narrow-focus_Mi-tia-odia-la-lluvia.wav,./stim/wavs/castilian_mismatch_declarative-narrow-focus_Mi-tia-odia-la-lluvia.wav,./stim/wavs/chilean_mismatch_declarative-narrow-focus_Mi-tia-odia-la-lluvia.wav,./stim/wavs/cuban_mismatch_declarative-narrow-focus_Mi-tia-odia-la-lluvia.wav,./stim/wavs/mexican_mismatch_declarative-narrow-focus_Mi-tia-odia-la-lluvia.wav,./stim/wavs/peruvian_mismatch_declarative-narrow-focus_Mi-tia-odia-la-lluvia.wav,./stim/wavs/puertorican_mismatch_declarative-narrow-focus_Mi-tia-odia-la-lluvia.wav,,,,,,,,,,,,,,,,,,,,,,,,,,,,,,,,,,,,,,,,,,,,,,,,,,,,,,,,
,,,,,,,jvc198,Mexican,Southern English,15,no,2021-02-14_13h41.01.370,empathy_intonation_perc,2020.2.10,MacIntel,60,,,,,,,,,,1,castilian,0,0,0.40574,0,10,10,49,1,50,./stim/wavs/andalusian_mismatch_interrogative-partial-wh_Cuando-lavaba-el-plato.wav,./stim/wavs/argentine_mismatch_interrogative-partial-wh_Cuando-lavaba-el-plato.wav,./stim/wavs/castilian_mismatch_interrogative-partial-wh_Cuando-lavaba-el-plato.wav,./stim/wavs/chilean_mismatch_interrogative-partial-wh_Cuando-lavaba-el-plato.wav,./stim/wavs/cuban_mismatch_interrogative-partial-wh_Cuando-lavaba-el-plato.wav,./stim/wavs/mexican_mismatch_interrogative-partial-wh_Cuando-lavaba-el-plato.wav,./stim/wavs/peruvian_mismatch_interrogative-partial-wh_Cuando-lavaba-el-plato.wav,./stim/wavs/puertorican_mismatch_interrogative-partial-wh_Cuando-lavaba-el-plato.wav,,,,,,,,,,,,,,,,,,,,,,,,,,,,,,,,,,,,,,,,,,,,,,,,,,,,,,,,
,,,,,,,jvc198,Mexican,Southern English,15,no,2021-02-14_13h41.01.370,empathy_intonation_perc,2020.2.10,MacIntel,60,,,,,,,,,,0,chilean,0,1,1.30857,0,11,11,0,1,1,./stim/wavs/andalusian_match_declarative-broad-focus_Ana-lleva-el-abrigo.wav,./stim/wavs/argentine_match_declarative-broad-focus_Ana-lleva-el-abrigo.wav,./stim/wavs/castilian_match_declarative-broad-focus_Ana-lleva-el-abrigo.wav,./stim/wavs/chilean_match_declarative-broad-focus_Ana-lleva-el-abrigo.wav,./stim/wavs/cuban_match_declarative-broad-focus_Ana-lleva-el-abrigo.wav,./stim/wavs/mexican_match_declarative-broad-focus_Ana-lleva-el-abrigo.wav,./stim/wavs/peruvian_match_declarative-broad-focus_Ana-lleva-el-abrigo.wav,./stim/wavs/puertorican_match_declarative-broad-focus_Ana-lleva-el-abrigo.wav,,,,,,,,,,,,,,,,,,,,,,,,,,,,,,,,,,,,,,,,,,,,,,,,,,,,,,,,
,,,,,,,jvc198,Mexican,Southern English,15,no,2021-02-14_13h41.01.370,empathy_intonation_perc,2020.2.10,MacIntel,60,,,,,,,,,,0,andalusian,0,1,0.53847,0,12,12,45,1,46,./stim/wavs/andalusian_mismatch_declarative-narrow-focus_Mi-madre-come-la-fruta.wav,./stim/wavs/argentine_mismatch_declarative-narrow-focus_Mi-madre-come-la-fruta.wav,./stim/wavs/castilian_mismatch_declarative-narrow-focus_Mi-madre-come-la-fruta.wav,./stim/wavs/chilean_mismatch_declarative-narrow-focus_Mi-madre-come-la-fruta.wav,./stim/wavs/cuban_mismatch_declarative-narrow-focus_Mi-madre-come-la-fruta.wav,./stim/wavs/mexican_mismatch_declarative-narrow-focus_Mi-madre-come-la-fruta.wav,./stim/wavs/peruvian_mismatch_declarative-narrow-focus_Mi-madre-come-la-fruta.wav,./stim/wavs/puertorican_mismatch_declarative-narrow-focus_Mi-madre-come-la-fruta.wav,,,,,,,,,,,,,,,,,,,,,,,,,,,,,,,,,,,,,,,,,,,,,,,,,,,,,,,,
,,,,,,,jvc198,Mexican,Southern English,15,no,2021-02-14_13h41.01.370,empathy_intonation_perc,2020.2.10,MacIntel,60,,,,,,,,,,1,chilean,0,0,1.60032,0,13,13,56,1,57,./stim/wavs/andalusian_mismatch_interrogative-total-yn_El-bebe-comia-muy-bien.wav,./stim/wavs/argentine_mismatch_interrogative-total-yn_El-bebe-comia-muy-bien.wav,./stim/wavs/castilian_mismatch_interrogative-total-yn_El-bebe-comia-muy-bien.wav,./stim/wavs/chilean_mismatch_interrogative-total-yn_El-bebe-comia-muy-bien.wav,./stim/wavs/cuban_mismatch_interrogative-total-yn_El-bebe-comia-muy-bien.wav,./stim/wavs/mexican_mismatch_interrogative-total-yn_El-bebe-comia-muy-bien.wav,./stim/wavs/peruvian_mismatch_interrogative-total-yn_El-bebe-comia-muy-bien.wav,./stim/wavs/puertorican_mismatch_interrogative-total-yn_El-bebe-comia-muy-bien.wav,,,,,,,,,,,,,,,,,,,,,,,,,,,,,,,,,,,,,,,,,,,,,,,,,,,,,,,,
,,,,,,,jvc198,Mexican,Southern English,15,no,2021-02-14_13h41.01.370,empathy_intonation_perc,2020.2.10,MacIntel,60,,,,,,,,,,1,andalusian,0,0,1.20505,0,14,14,59,1,60,./stim/wavs/andalusian_mismatch_interrogative-total-yn_La-maestra-vive-en-Paris.wav,./stim/wavs/argentine_mismatch_interrogative-total-yn_La-maestra-vive-en-Paris.wav,./stim/wavs/castilian_mismatch_interrogative-total-yn_La-maestra-vive-en-Paris.wav,./stim/wavs/chilean_mismatch_interrogative-total-yn_La-maestra-vive-en-Paris.wav,./stim/wavs/cuban_mismatch_interrogative-total-yn_La-maestra-vive-en-Paris.wav,./stim/wavs/mexican_mismatch_interrogative-total-yn_La-maestra-vive-en-Paris.wav,./stim/wavs/peruvian_mismatch_interrogative-total-yn_La-maestra-vive-en-Paris.wav,./stim/wavs/puertorican_mismatch_interrogative-total-yn_La-maestra-vive-en-Paris.wav,,,,,,,,,,,,,,,,,,,,,,,,,,,,,,,,,,,,,,,,,,,,,,,,,,,,,,,,
,,,,,,,jvc198,Mexican,Southern English,15,no,2021-02-14_13h41.01.370,empathy_intonation_perc,2020.2.10,MacIntel,60,,,,,,,,,,1,andalusian,0,0,0.41865,0,15,15,29,1,30,./stim/wavs/andalusian_match_interrogative-total-yn_Maria-bebe-el-vino.wav,./stim/wavs/argentine_match_interrogative-total-yn_Maria-bebe-el-vino.wav,./stim/wavs/castilian_match_interrogative-total-yn_Maria-bebe-el-vino.wav,./stim/wavs/chilean_match_interrogative-total-yn_Maria-bebe-el-vino.wav,./stim/wavs/cuban_match_interrogative-total-yn_Maria-bebe-el-vino.wav,./stim/wavs/mexican_match_interrogative-total-yn_Maria-bebe-el-vino.wav,./stim/wavs/peruvian_match_interrogative-total-yn_Maria-bebe-el-vino.wav,./stim/wavs/puertorican_match_interrogative-total-yn_Maria-bebe-el-vino.wav,,,,,,,,,,,,,,,,,,,,,,,,,,,,,,,,,,,,,,,,,,,,,,,,,,,,,,,,
,,,,,,,jvc198,Mexican,Southern English,15,no,2021-02-14_13h41.01.370,empathy_intonation_perc,2020.2.10,MacIntel,60,,,,,,,,,,0,puertorican,0,1,0.306755,0,16,16,5,1,6,./stim/wavs/andalusian_match_declarative-broad-focus_Maria-bebe-el-vino.wav,./stim/wavs/argentine_match_declarative-broad-focus_Maria-bebe-el-vino.wav,./stim/wavs/castilian_match_declarative-broad-focus_Maria-bebe-el-vino.wav,./stim/wavs/chilean_match_declarative-broad-focus_Maria-bebe-el-vino.wav,./stim/wavs/cuban_match_declarative-broad-focus_Maria-bebe-el-vino.wav,./stim/wavs/mexican_match_declarative-broad-focus_Maria-bebe-el-vino.wav,./stim/wavs/peruvian_match_declarative-broad-focus_Maria-bebe-el-vino.wav,./stim/wavs/puertorican_match_declarative-broad-focus_Maria-bebe-el-vino.wav,,,,,,,,,,,,,,,,,,,,,,,,,,,,,,,,,,,,,,,,,,,,,,,,,,,,,,,,
,,,,,,,jvc198,Mexican,Southern English,15,no,2021-02-14_13h41.01.370,empathy_intonation_perc,2020.2.10,MacIntel,60,,,,,,,,,,0,cuban,0,1,0.38973,0,17,17,3,1,4,./stim/wavs/andalusian_match_declarative-broad-focus_Emilio-ama-la-marcha.wav,./stim/wavs/argentine_match_declarative-broad-focus_Emilio-ama-la-marcha.wav,./stim/wavs/castilian_match_declarative-broad-focus_Emilio-ama-la-marcha.wav,./stim/wavs/chilean_match_declarative-broad-focus_Emilio-ama-la-marcha.wav,./stim/wavs/cuban_match_declarative-broad-focus_Emilio-ama-la-marcha.wav,./stim/wavs/mexican_match_declarative-broad-focus_Emilio-ama-la-marcha.wav,./stim/wavs/peruvian_match_declarative-broad-focus_Emilio-ama-la-marcha.wav,./stim/wavs/puertorican_match_declarative-broad-focus_Emilio-ama-la-marcha.wav,,,,,,,,,,,,,,,,,,,,,,,,,,,,,,,,,,,,,,,,,,,,,,,,,,,,,,,,
,,,,,,,jvc198,Mexican,Southern English,15,no,2021-02-14_13h41.01.370,empathy_intonation_perc,2020.2.10,MacIntel,60,,,,,,,,,,0,chilean,0,1,1.296695,0,18,18,43,1,44,./stim/wavs/andalusian_mismatch_declarative-narrow-focus_La-maestra-vive-en-Paris.wav,./stim/wavs/argentine_mismatch_declarative-narrow-focus_La-maestra-vive-en-Paris.wav,./stim/wavs/castilian_mismatch_declarative-narrow-focus_La-maestra-vive-en-Paris.wav,./stim/wavs/chilean_mismatch_declarative-narrow-focus_La-maestra-vive-en-Paris.wav,./stim/wavs/cuban_mismatch_declarative-narrow-focus_La-maestra-vive-en-Paris.wav,./stim/wavs/mexican_mismatch_declarative-narrow-focus_La-maestra-vive-en-Paris.wav,./stim/wavs/peruvian_mismatch_declarative-narrow-focus_La-maestra-vive-en-Paris.wav,./stim/wavs/puertorican_mismatch_declarative-narrow-focus_La-maestra-vive-en-Paris.wav,,,,,,,,,,,,,,,,,,,,,,,,,,,,,,,,,,,,,,,,,,,,,,,,,,,,,,,,
,,,,,,,jvc198,Mexican,Southern English,15,no,2021-02-14_13h41.01.370,empathy_intonation_perc,2020.2.10,MacIntel,60,,,,,,,,,,1,peruvian,0,0,1.018525,0,19,19,27,1,28,./stim/wavs/andalusian_match_interrogative-total-yn_Emilio-ama-la-marcha.wav,./stim/wavs/argentine_match_interrogative-total-yn_Emilio-ama-la-marcha.wav,./stim/wavs/castilian_match_interrogative-total-yn_Emilio-ama-la-marcha.wav,./stim/wavs/chilean_match_interrogative-total-yn_Emilio-ama-la-marcha.wav,./stim/wavs/cuban_match_interrogative-total-yn_Emilio-ama-la-marcha.wav,./stim/wavs/mexican_match_interrogative-total-yn_Emilio-ama-la-marcha.wav,./stim/wavs/peruvian_match_interrogative-total-yn_Emilio-ama-la-marcha.wav,./stim/wavs/puertorican_match_interrogative-total-yn_Emilio-ama-la-marcha.wav,,,,,,,,,,,,,,,,,,,,,,,,,,,,,,,,,,,,,,,,,,,,,,,,,,,,,,,,
,,,,,,,jvc198,Mexican,Southern English,15,no,2021-02-14_13h41.01.370,empathy_intonation_perc,2020.2.10,MacIntel,60,,,,,,,,,,1,peruvian,0,0,0.051045,0,20,20,22,1,23,./stim/wavs/andalusian_match_interrogative-partial-wh_Por-que-hablaba-del-agua.wav,./stim/wavs/argentine_match_interrogative-partial-wh_Por-que-hablaba-del-agua.wav,./stim/wavs/castilian_match_interrogative-partial-wh_Por-que-hablaba-del-agua.wav,./stim/wavs/chilean_match_interrogative-partial-wh_Por-que-hablaba-del-agua.wav,./stim/wavs/cuban_match_interrogative-partial-wh_Por-que-hablaba-del-agua.wav,./stim/wavs/mexican_match_interrogative-partial-wh_Por-que-hablaba-del-agua.wav,./stim/wavs/peruvian_match_interrogative-partial-wh_Por-que-hablaba-del-agua.wav,./stim/wavs/puertorican_match_interrogative-partial-wh_Por-que-hablaba-del-agua.wav,,,,,,,,,,,,,,,,,,,,,,,,,,,,,,,,,,,,,,,,,,,,,,,,,,,,,,,,
,,,,,,,jvc198,Mexican,Southern English,15,no,2021-02-14_13h41.01.370,empathy_intonation_perc,2020.2.10,MacIntel,60,,,,,,,,,,0,mexican,0,1,0.236185,0,21,21,39,1,40,./stim/wavs/andalusian_mismatch_declarative-broad-focus_Mi-tia-odia-la-lluvia.wav,./stim/wavs/argentine_mismatch_declarative-broad-focus_Mi-tia-odia-la-lluvia.wav,./stim/wavs/castilian_mismatch_declarative-broad-focus_Mi-tia-odia-la-lluvia.wav,./stim/wavs/chilean_mismatch_declarative-broad-focus_Mi-tia-odia-la-lluvia.wav,./stim/wavs/cuban_mismatch_declarative-broad-focus_Mi-tia-odia-la-lluvia.wav,./stim/wavs/mexican_mismatch_declarative-broad-focus_Mi-tia-odia-la-lluvia.wav,./stim/wavs/peruvian_mismatch_declarative-broad-focus_Mi-tia-odia-la-lluvia.wav,./stim/wavs/puertorican_mismatch_declarative-broad-focus_Mi-tia-odia-la-lluvia.wav,,,,,,,,,,,,,,,,,,,,,,,,,,,,,,,,,,,,,,,,,,,,,,,,,,,,,,,,
,,,,,,,jvc198,Mexican,Southern English,15,no,2021-02-14_13h41.01.370,empathy_intonation_perc,2020.2.10,MacIntel,60,,,,,,,,,,0,mexican,0,1,0.289015,0,22,22,9,1,10,./stim/wavs/andalusian_match_declarative-narrow-focus_Daniel-iba-a-Bolivia.wav,./stim/wavs/argentine_match_declarative-narrow-focus_Daniel-iba-a-Bolivia.wav,./stim/wavs/castilian_match_declarative-narrow-focus_Daniel-iba-a-Bolivia.wav,./stim/wavs/chilean_match_declarative-narrow-focus_Daniel-iba-a-Bolivia.wav,./stim/wavs/cuban_match_declarative-narrow-focus_Daniel-iba-a-Bolivia.wav,./stim/wavs/mexican_match_declarative-narrow-focus_Daniel-iba-a-Bolivia.wav,./stim/wavs/peruvian_match_declarative-narrow-focus_Daniel-iba-a-Bolivia.wav,./stim/wavs/puertorican_match_declarative-narrow-focus_Daniel-iba-a-Bolivia.wav,,,,,,,,,,,,,,,,,,,,,,,,,,,,,,,,,,,,,,,,,,,,,,,,,,,,,,,,
,,,,,,,jvc198,Mexican,Southern English,15,no,2021-02-14_13h41.01.370,empathy_intonation_perc,2020.2.10,MacIntel,60,,,,,,,,,,1,mexican,0,0,0.00059,0,23,23,21,1,22,./stim/wavs/andalusian_match_interrogative-partial-wh_Por-que-ama-la-navidad.wav,./stim/wavs/argentine_match_interrogative-partial-wh_Por-que-ama-la-navidad.wav,./stim/wavs/castilian_match_interrogative-partial-wh_Por-que-ama-la-navidad.wav,./stim/wavs/chilean_match_interrogative-partial-wh_Por-que-ama-la-navidad.wav,./stim/wavs/cuban_match_interrogative-partial-wh_Por-que-ama-la-navidad.wav,./stim/wavs/mexican_match_interrogative-partial-wh_Por-que-ama-la-navidad.wav,./stim/wavs/peruvian_match_interrogative-partial-wh_Por-que-ama-la-navidad.wav,./stim/wavs/puertorican_match_interrogative-partial-wh_Por-que-ama-la-navidad.wav,,,,,,,,,,,,,,,,,,,,,,,,,,,,,,,,,,,,,,,,,,,,,,,,,,,,,,,,
,,,,,,,jvc198,Mexican,Southern English,15,no,2021-02-14_13h41.01.370,empathy_intonation_perc,2020.2.10,MacIntel,60,,,,,,,,,,1,cuban,0,0,0.20032,0,24,24,17,1,18,./stim/wavs/andalusian_match_interrogative-partial-wh_Cuando-leia-el-libro.wav,./stim/wavs/argentine_match_interrogative-partial-wh_Cuando-leia-el-libro.wav,./stim/wavs/castilian_match_interrogative-partial-wh_Cuando-leia-el-libro.wav,./stim/wavs/chilean_match_interrogative-partial-wh_Cuando-leia-el-libro.wav,./stim/wavs/cuban_match_interrogative-partial-wh_Cuando-leia-el-libro.wav,./stim/wavs/mexican_match_interrogative-partial-wh_Cuando-leia-el-libro.wav,./stim/wavs/peruvian_match_interrogative-partial-wh_Cuando-leia-el-libro.wav,./stim/wavs/puertorican_match_interrogative-partial-wh_Cuando-leia-el-libro.wav,,,,,,,,,,,,,,,,,,,,,,,,,,,,,,,,,,,,,,,,,,,,,,,,,,,,,,,,
,,,,,,,jvc198,Mexican,Southern English,15,no,2021-02-14_13h41.01.370,empathy_intonation_perc,2020.2.10,MacIntel,60,,,,,,,,,,1,mexican,0,0,0.21728,0,25,25,16,1,17,./stim/wavs/andalusian_match_interrogative-partial-wh_Cuando-bebia-el-vino.wav,./stim/wavs/argentine_match_interrogative-partial-wh_Cuando-bebia-el-vino.wav,./stim/wavs/castilian_match_interrogative-partial-wh_Cuando-bebia-el-vino.wav,./stim/wavs/chilean_match_interrogative-partial-wh_Cuando-bebia-el-vino.wav,./stim/wavs/cuban_match_interrogative-partial-wh_Cuando-bebia-el-vino.wav,./stim/wavs/mexican_match_interrogative-partial-wh_Cuando-bebia-el-vino.wav,./stim/wavs/peruvian_match_interrogative-partial-wh_Cuando-bebia-el-vino.wav,./stim/wavs/puertorican_match_interrogative-partial-wh_Cuando-bebia-el-vino.wav,,,,,,,,,,,,,,,,,,,,,,,,,,,,,,,,,,,,,,,,,,,,,,,,,,,,,,,,
,,,,,,,jvc198,Mexican,Southern English,15,no,2021-02-14_13h41.01.370,empathy_intonation_perc,2020.2.10,MacIntel,60,,,,,,,,,,1,argentine,0,0,0.15013,0,26,26,54,1,55,./stim/wavs/andalusian_mismatch_interrogative-partial-wh_Por-que-venia-del-lago.wav,./stim/wavs/argentine_mismatch_interrogative-partial-wh_Por-que-venia-del-lago.wav,./stim/wavs/castilian_mismatch_interrogative-partial-wh_Por-que-venia-del-lago.wav,./stim/wavs/chilean_mismatch_interrogative-partial-wh_Por-que-venia-del-lago.wav,./stim/wavs/cuban_mismatch_interrogative-partial-wh_Por-que-venia-del-lago.wav,./stim/wavs/mexican_mismatch_interrogative-partial-wh_Por-que-venia-del-lago.wav,./stim/wavs/peruvian_mismatch_interrogative-partial-wh_Por-que-venia-del-lago.wav,./stim/wavs/puertorican_mismatch_interrogative-partial-wh_Por-que-venia-del-lago.wav,,,,,,,,,,,,,,,,,,,,,,,,,,,,,,,,,,,,,,,,,,,,,,,,,,,,,,,,
,,,,,,,jvc198,Mexican,Southern English,15,no,2021-02-14_13h41.01.370,empathy_intonation_perc,2020.2.10,MacIntel,60,,,,,,,,,,1,castilian,0,0,0.141645,0,27,27,28,1,29,./stim/wavs/andalusian_match_interrogative-total-yn_Manuela-vende-el-carro.wav,./stim/wavs/argentine_match_interrogative-total-yn_Manuela-vende-el-carro.wav,./stim/wavs/castilian_match_interrogative-total-yn_Manuela-vende-el-carro.wav,./stim/wavs/chilean_match_interrogative-total-yn_Manuela-vende-el-carro.wav,./stim/wavs/cuban_match_interrogative-total-yn_Manuela-vende-el-carro.wav,./stim/wavs/mexican_match_interrogative-total-yn_Manuela-vende-el-carro.wav,./stim/wavs/peruvian_match_interrogative-total-yn_Manuela-vende-el-carro.wav,./stim/wavs/puertorican_match_interrogative-total-yn_Manuela-vende-el-carro.wav,,,,,,,,,,,,,,,,,,,,,,,,,,,,,,,,,,,,,,,,,,,,,,,,,,,,,,,,
,,,,,,,jvc198,Mexican,Southern English,15,no,2021-02-14_13h41.01.370,empathy_intonation_perc,2020.2.10,MacIntel,60,,,,,,,,,,0,peruvian,0,1,0.10299,0,28,28,41,1,42,./stim/wavs/andalusian_mismatch_declarative-narrow-focus_El-hombre-mira-la-luna.wav,./stim/wavs/argentine_mismatch_declarative-narrow-focus_El-hombre-mira-la-luna.wav,./stim/wavs/castilian_mismatch_declarative-narrow-focus_El-hombre-mira-la-luna.wav,./stim/wavs/chilean_mismatch_declarative-narrow-focus_El-hombre-mira-la-luna.wav,./stim/wavs/cuban_mismatch_declarative-narrow-focus_El-hombre-mira-la-luna.wav,./stim/wavs/mexican_mismatch_declarative-narrow-focus_El-hombre-mira-la-luna.wav,./stim/wavs/peruvian_mismatch_declarative-narrow-focus_El-hombre-mira-la-luna.wav,./stim/wavs/puertorican_mismatch_declarative-narrow-focus_El-hombre-mira-la-luna.wav,,,,,,,,,,,,,,,,,,,,,,,,,,,,,,,,,,,,,,,,,,,,,,,,,,,,,,,,
,,,,,,,jvc198,Mexican,Southern English,15,no,2021-02-14_13h41.01.370,empathy_intonation_perc,2020.2.10,MacIntel,60,,,,,,,,,,0,argentine,0,1,0.149895,0,29,29,14,1,15,./stim/wavs/andalusian_match_declarative-narrow-focus_Mariano-habla-del-tiempo.wav,./stim/wavs/argentine_match_declarative-narrow-focus_Mariano-habla-del-tiempo.wav,./stim/wavs/castilian_match_declarative-narrow-focus_Mariano-habla-del-tiempo.wav,./stim/wavs/chilean_match_declarative-narrow-focus_Mariano-habla-del-tiempo.wav,./stim/wavs/cuban_match_declarative-narrow-focus_Mariano-habla-del-tiempo.wav,./stim/wavs/mexican_match_declarative-narrow-focus_Mariano-habla-del-tiempo.wav,./stim/wavs/peruvian_match_declarative-narrow-focus_Mariano-habla-del-tiempo.wav,./stim/wavs/puertorican_match_declarative-narrow-focus_Mariano-habla-del-tiempo.wav,,,,,,,,,,,,,,,,,,,,,,,,,,,,,,,,,,,,,,,,,,,,,,,,,,,,,,,,
,,,,,,,jvc198,Mexican,Southern English,15,no,2021-02-14_13h41.01.370,empathy_intonation_perc,2020.2.10,MacIntel,60,,,,,,,,,,1,cuban,0,0,0.162525,0,30,30,18,1,19,./stim/wavs/andalusian_match_interrogative-partial-wh_Cuando-lleva-el-abrigo.wav,./stim/wavs/argentine_match_interrogative-partial-wh_Cuando-lleva-el-abrigo.wav,./stim/wavs/castilian_match_interrogative-partial-wh_Cuando-lleva-el-abrigo.wav,./stim/wavs/chilean_match_interrogative-partial-wh_Cuando-lleva-el-abrigo.wav,./stim/wavs/cuban_match_interrogative-partial-wh_Cuando-lleva-el-abrigo.wav,./stim/wavs/mexican_match_interrogative-partial-wh_Cuando-lleva-el-abrigo.wav,./stim/wavs/peruvian_match_interrogative-partial-wh_Cuando-lleva-el-abrigo.wav,./stim/wavs/puertorican_match_interrogative-partial-wh_Cuando-lleva-el-abrigo.wav,,,,,,,,,,,,,,,,,,,,,,,,,,,,,,,,,,,,,,,,,,,,,,,,,,,,,,,,
,,,,,,,jvc198,Mexican,Southern English,15,no,2021-02-14_13h41.01.370,empathy_intonation_perc,2020.2.10,MacIntel,60,,,,,,,,,,0,chilean,0,1,0.167175,0,31,31,35,1,36,./stim/wavs/andalusian_mismatch_declarative-broad-focus_La-maestra-vive-en-Paris.wav,./stim/wavs/argentine_mismatch_declarative-broad-focus_La-maestra-vive-en-Paris.wav,./stim/wavs/castilian_mismatch_declarative-broad-focus_La-maestra-vive-en-Paris.wav,./stim/wavs/chilean_mismatch_declarative-broad-focus_La-maestra-vive-en-Paris.wav,./stim/wavs/cuban_mismatch_declarative-broad-focus_La-maestra-vive-en-Paris.wav,./stim/wavs/mexican_mismatch_declarative-broad-focus_La-maestra-vive-en-Paris.wav,./stim/wavs/peruvian_mismatch_declarative-broad-focus_La-maestra-vive-en-Paris.wav,./stim/wavs/puertorican_mismatch_declarative-broad-focus_La-maestra-vive-en-Paris.wav,,,,,,,,,,,,,,,,,,,,,,,,,,,,,,,,,,,,,,,,,,,,,,,,,,,,,,,,
,,,,,,,jvc198,Mexican,Southern English,15,no,2021-02-14_13h41.01.370,empathy_intonation_perc,2020.2.10,MacIntel,60,,,,,,,,,,1,argentine,0,0,0.184025,0,32,32,60,1,61,./stim/wavs/andalusian_mismatch_interrogative-total-yn_La-nina-lava-el-plato.wav,./stim/wavs/argentine_mismatch_interrogative-total-yn_La-nina-lava-el-plato.wav,./stim/wavs/castilian_mismatch_interrogative-total-yn_La-nina-lava-el-plato.wav,./stim/wavs/chilean_mismatch_interrogative-total-yn_La-nina-lava-el-plato.wav,./stim/wavs/cuban_mismatch_interrogative-total-yn_La-nina-lava-el-plato.wav,./stim/wavs/mexican_mismatch_interrogative-total-yn_La-nina-lava-el-plato.wav,./stim/wavs/peruvian_mismatch_interrogative-total-yn_La-nina-lava-el-plato.wav,./stim/wavs/puertorican_mismatch_interrogative-total-yn_La-nina-lava-el-plato.wav,,,,,,,,,,,,,,,,,,,,,,,,,,,,,,,,,,,,,,,,,,,,,,,,,,,,,,,,
,,,,,,,jvc198,Mexican,Southern English,15,no,2021-02-14_13h41.01.370,empathy_intonation_perc,2020.2.10,MacIntel,60,,,,,,,,,,0,cuban,0,1,0.151235,0,33,33,2,1,3,./stim/wavs/andalusian_match_declarative-broad-focus_David-leia-el-libro.wav,./stim/wavs/argentine_match_declarative-broad-focus_David-leia-el-libro.wav,./stim/wavs/castilian_match_declarative-broad-focus_David-leia-el-libro.wav,./stim/wavs/chilean_match_declarative-broad-focus_David-leia-el-libro.wav,./stim/wavs/cuban_match_declarative-broad-focus_David-leia-el-libro.wav,./stim/wavs/mexican_match_declarative-broad-focus_David-leia-el-libro.wav,./stim/wavs/peruvian_match_declarative-broad-focus_David-leia-el-libro.wav,./stim/wavs/puertorican_match_declarative-broad-focus_David-leia-el-libro.wav,,,,,,,,,,,,,,,,,,,,,,,,,,,,,,,,,,,,,,,,,,,,,,,,,,,,,,,,
,,,,,,,jvc198,Mexican,Southern English,15,no,2021-02-14_13h41.01.370,empathy_intonation_perc,2020.2.10,MacIntel,60,,,,,,,,,,1,peruvian,0,0,0.131555,0,34,34,52,1,53,./stim/wavs/andalusian_mismatch_interrogative-partial-wh_Por-que-odiaba-la-lluvia.wav,./stim/wavs/argentine_mismatch_interrogative-partial-wh_Por-que-odiaba-la-lluvia.wav,./stim/wavs/castilian_mismatch_interrogative-partial-wh_Por-que-odiaba-la-lluvia.wav,./stim/wavs/chilean_mismatch_interrogative-partial-wh_Por-que-odiaba-la-lluvia.wav,./stim/wavs/cuban_mismatch_interrogative-partial-wh_Por-que-odiaba-la-lluvia.wav,./stim/wavs/mexican_mismatch_interrogative-partial-wh_Por-que-odiaba-la-lluvia.wav,./stim/wavs/peruvian_mismatch_interrogative-partial-wh_Por-que-odiaba-la-lluvia.wav,./stim/wavs/puertorican_mismatch_interrogative-partial-wh_Por-que-odiaba-la-lluvia.wav,,,,,,,,,,,,,,,,,,,,,,,,,,,,,,,,,,,,,,,,,,,,,,,,,,,,,,,,
,,,,,,,jvc198,Mexican,Southern English,15,no,2021-02-14_13h41.01.370,empathy_intonation_perc,2020.2.10,MacIntel,60,,,,,,,,,,0,cuban,0,1,0.11747,0,35,35,10,1,11,./stim/wavs/andalusian_match_declarative-narrow-focus_David-leia-el-libro.wav,./stim/wavs/argentine_match_declarative-narrow-focus_David-leia-el-libro.wav,./stim/wavs/castilian_match_declarative-narrow-focus_David-leia-el-libro.wav,./stim/wavs/chilean_match_declarative-narrow-focus_David-leia-el-libro.wav,./stim/wavs/cuban_match_declarative-narrow-focus_David-leia-el-libro.wav,./stim/wavs/mexican_match_declarative-narrow-focus_David-leia-el-libro.wav,./stim/wavs/peruvian_match_declarative-narrow-focus_David-leia-el-libro.wav,./stim/wavs/puertorican_match_declarative-narrow-focus_David-leia-el-libro.wav,,,,,,,,,,,,,,,,,,,,,,,,,,,,,,,,,,,,,,,,,,,,,,,,,,,,,,,,
,,,,,,,jvc198,Mexican,Southern English,15,no,2021-02-14_13h41.01.370,empathy_intonation_perc,2020.2.10,MacIntel,60,,,,,,,,,,0,argentine,0,1,0.08736,0,36,36,40,1,41,./stim/wavs/andalusian_mismatch_declarative-narrow-focus_El-bebe-comia-muy-bien.wav,./stim/wavs/argentine_mismatch_declarative-narrow-focus_El-bebe-comia-muy-bien.wav,./stim/wavs/castilian_mismatch_declarative-narrow-focus_El-bebe-comia-muy-bien.wav,./stim/wavs/chilean_mismatch_declarative-narrow-focus_El-bebe-comia-muy-bien.wav,./stim/wavs/cuban_mismatch_declarative-narrow-focus_El-bebe-comia-muy-bien.wav,./stim/wavs/mexican_mismatch_declarative-narrow-focus_El-bebe-comia-muy-bien.wav,./stim/wavs/peruvian_mismatch_declarative-narrow-focus_El-bebe-comia-muy-bien.wav,./stim/wavs/puertorican_mismatch_declarative-narrow-focus_El-bebe-comia-muy-bien.wav,,,,,,,,,,,,,,,,,,,,,,,,,,,,,,,,,,,,,,,,,,,,,,,,,,,,,,,,
,,,,,,,jvc198,Mexican,Southern English,15,no,2021-02-14_13h41.01.370,empathy_intonation_perc,2020.2.10,MacIntel,60,,,,,,,,,,1,argentine,0,0,0.0757,0,37,37,50,1,51,./stim/wavs/andalusian_mismatch_interrogative-partial-wh_Cuando-miraba-la-luna.wav,./stim/wavs/argentine_mismatch_interrogative-partial-wh_Cuando-miraba-la-luna.wav,./stim/wavs/castilian_mismatch_interrogative-partial-wh_Cuando-miraba-la-luna.wav,./stim/wavs/chilean_mismatch_interrogative-partial-wh_Cuando-miraba-la-luna.wav,./stim/wavs/cuban_mismatch_interrogative-partial-wh_Cuando-miraba-la-luna.wav,./stim/wavs/mexican_mismatch_interrogative-partial-wh_Cuando-miraba-la-luna.wav,./stim/wavs/peruvian_mismatch_interrogative-partial-wh_Cuando-miraba-la-luna.wav,./stim/wavs/puertorican_mismatch_interrogative-partial-wh_Cuando-miraba-la-luna.wav,,,,,,,,,,,,,,,,,,,,,,,,,,,,,,,,,,,,,,,,,,,,,,,,,,,,,,,,
,,,,,,,jvc198,Mexican,Southern English,15,no,2021-02-14_13h41.01.370,empathy_intonation_perc,2020.2.10,MacIntel,60,,,,,,,,,,0,andalusian,0,1,0.07923,0,38,38,4,1,5,./stim/wavs/andalusian_match_declarative-broad-focus_Manuela-vende-el-carro.wav,./stim/wavs/argentine_match_declarative-broad-focus_Manuela-vende-el-carro.wav,./stim/wavs/castilian_match_declarative-broad-focus_Manuela-vende-el-carro.wav,./stim/wavs/chilean_match_declarative-broad-focus_Manuela-vende-el-carro.wav,./stim/wavs/cuban_match_declarative-broad-focus_Manuela-vende-el-carro.wav,./stim/wavs/mexican_match_declarative-broad-focus_Manuela-vende-el-carro.wav,./stim/wavs/peruvian_match_declarative-broad-focus_Manuela-vende-el-carro.wav,./stim/wavs/puertorican_match_declarative-broad-focus_Manuela-vende-el-carro.wav,,,,,,,,,,,,,,,,,,,,,,,,,,,,,,,,,,,,,,,,,,,,,,,,,,,,,,,,
,,,,,,,jvc198,Mexican,Southern English,15,no,2021-02-14_13h41.01.370,empathy_intonation_perc,2020.2.10,MacIntel,60,,,,,,,,,,0,puertorican,0,1,0.190315,0,39,39,15,1,16,./stim/wavs/andalusian_match_declarative-narrow-focus_Marta-abre-el-regalo.wav,./stim/wavs/argentine_match_declarative-narrow-focus_Marta-abre-el-regalo.wav,./stim/wavs/castilian_match_declarative-narrow-focus_Marta-abre-el-regalo.wav,./stim/wavs/chilean_match_declarative-narrow-focus_Marta-abre-el-regalo.wav,./stim/wavs/cuban_match_declarative-narrow-focus_Marta-abre-el-regalo.wav,./stim/wavs/mexican_match_declarative-narrow-focus_Marta-abre-el-regalo.wav,./stim/wavs/peruvian_match_declarative-narrow-focus_Marta-abre-el-regalo.wav,./stim/wavs/puertorican_match_declarative-narrow-focus_Marta-abre-el-regalo.wav,,,,,,,,,,,,,,,,,,,,,,,,,,,,,,,,,,,,,,,,,,,,,,,,,,,,,,,,
,,,,,,,jvc198,Mexican,Southern English,15,no,2021-02-14_13h41.01.370,empathy_intonation_perc,2020.2.10,MacIntel,60,,,,,,,,,,0,andalusian,0,1,0.10033,0,40,40,46,1,47,./stim/wavs/andalusian_mismatch_declarative-narrow-focus_Mi-novio-viene-del-lago.wav,./stim/wavs/argentine_mismatch_declarative-narrow-focus_Mi-novio-viene-del-lago.wav,./stim/wavs/castilian_mismatch_declarative-narrow-focus_Mi-novio-viene-del-lago.wav,./stim/wavs/chilean_mismatch_declarative-narrow-focus_Mi-novio-viene-del-lago.wav,./stim/wavs/cuban_mismatch_declarative-narrow-focus_Mi-novio-viene-del-lago.wav,./stim/wavs/mexican_mismatch_declarative-narrow-focus_Mi-novio-viene-del-lago.wav,./stim/wavs/peruvian_mismatch_declarative-narrow-focus_Mi-novio-viene-del-lago.wav,./stim/wavs/puertorican_mismatch_declarative-narrow-focus_Mi-novio-viene-del-lago.wav,,,,,,,,,,,,,,,,,,,,,,,,,,,,,,,,,,,,,,,,,,,,,,,,,,,,,,,,
,,,,,,,jvc198,Mexican,Southern English,15,no,2021-02-14_13h41.01.370,empathy_intonation_perc,2020.2.10,MacIntel,60,,,,,,,,,,1,peruvian,0,0,0.19993,0,41,41,62,1,63,./stim/wavs/andalusian_mismatch_interrogative-total-yn_Mi-novio-viene-del-lago.wav,./stim/wavs/argentine_mismatch_interrogative-total-yn_Mi-novio-viene-del-lago.wav,./stim/wavs/castilian_mismatch_interrogative-total-yn_Mi-novio-viene-del-lago.wav,./stim/wavs/chilean_mismatch_interrogative-total-yn_Mi-novio-viene-del-lago.wav,./stim/wavs/cuban_mismatch_interrogative-total-yn_Mi-novio-viene-del-lago.wav,./stim/wavs/mexican_mismatch_interrogative-total-yn_Mi-novio-viene-del-lago.wav,./stim/wavs/peruvian_mismatch_interrogative-total-yn_Mi-novio-viene-del-lago.wav,./stim/wavs/puertorican_mismatch_interrogative-total-yn_Mi-novio-viene-del-lago.wav,,,,,,,,,,,,,,,,,,,,,,,,,,,,,,,,,,,,,,,,,,,,,,,,,,,,,,,,
,,,,,,,jvc198,Mexican,Southern English,15,no,2021-02-14_13h41.01.370,empathy_intonation_perc,2020.2.10,MacIntel,60,,,,,,,,,,0,chilean,0,1,0.137645,0,42,42,32,1,33,./stim/wavs/andalusian_mismatch_declarative-broad-focus_El-bebe-comia-muy-bien.wav,./stim/wavs/argentine_mismatch_declarative-broad-focus_El-bebe-comia-muy-bien.wav,./stim/wavs/castilian_mismatch_declarative-broad-focus_El-bebe-comia-muy-bien.wav,./stim/wavs/chilean_mismatch_declarative-broad-focus_El-bebe-comia-muy-bien.wav,./stim/wavs/cuban_mismatch_declarative-broad-focus_El-bebe-comia-muy-bien.wav,./stim/wavs/mexican_mismatch_declarative-broad-focus_El-bebe-comia-muy-bien.wav,./stim/wavs/peruvian_mismatch_declarative-broad-focus_El-bebe-comia-muy-bien.wav,./stim/wavs/puertorican_mismatch_declarative-broad-focus_El-bebe-comia-muy-bien.wav,,,,,,,,,,,,,,,,,,,,,,,,,,,,,,,,,,,,,,,,,,,,,,,,,,,,,,,,
,,,,,,,jvc198,Mexican,Southern English,15,no,2021-02-14_13h41.01.370,empathy_intonation_perc,2020.2.10,MacIntel,60,,,,,,,,,,1,peruvian,0,0,0.21691,0,43,43,30,1,31,./stim/wavs/andalusian_match_interrogative-total-yn_Mariano-habla-del-tiempo.wav,./stim/wavs/argentine_match_interrogative-total-yn_Mariano-habla-del-tiempo.wav,./stim/wavs/castilian_match_interrogative-total-yn_Mariano-habla-del-tiempo.wav,./stim/wavs/chilean_match_interrogative-total-yn_Mariano-habla-del-tiempo.wav,./stim/wavs/cuban_match_interrogative-total-yn_Mariano-habla-del-tiempo.wav,./stim/wavs/mexican_match_interrogative-total-yn_Mariano-habla-del-tiempo.wav,./stim/wavs/peruvian_match_interrogative-total-yn_Mariano-habla-del-tiempo.wav,./stim/wavs/puertorican_match_interrogative-total-yn_Mariano-habla-del-tiempo.wav,,,,,,,,,,,,,,,,,,,,,,,,,,,,,,,,,,,,,,,,,,,,,,,,,,,,,,,,
,,,,,,,jvc198,Mexican,Southern English,15,no,2021-02-14_13h41.01.370,empathy_intonation_perc,2020.2.10,MacIntel,60,,,,,,,,,,0,peruvian,0,1,0.02312,0,44,44,8,1,9,./stim/wavs/andalusian_match_declarative-narrow-focus_Ana-lleva-el-abrigo.wav,./stim/wavs/argentine_match_declarative-narrow-focus_Ana-lleva-el-abrigo.wav,./stim/wavs/castilian_match_declarative-narrow-focus_Ana-lleva-el-abrigo.wav,./stim/wavs/chilean_match_declarative-narrow-focus_Ana-lleva-el-abrigo.wav,./stim/wavs/cuban_match_declarative-narrow-focus_Ana-lleva-el-abrigo.wav,./stim/wavs/mexican_match_declarative-narrow-focus_Ana-lleva-el-abrigo.wav,./stim/wavs/peruvian_match_declarative-narrow-focus_Ana-lleva-el-abrigo.wav,./stim/wavs/puertorican_match_declarative-narrow-focus_Ana-lleva-el-abrigo.wav,,,,,,,,,,,,,,,,,,,,,,,,,,,,,,,,,,,,,,,,,,,,,,,,,,,,,,,,
,,,,,,,jvc198,Mexican,Southern English,15,no,2021-02-14_13h41.01.370,empathy_intonation_perc,2020.2.10,MacIntel,60,,,,,,,,,,1,castilian,0,0,0.017975,0,45,45,25,1,26,./stim/wavs/andalusian_match_interrogative-total-yn_Daniel-iba-a-Bolivia.wav,./stim/wavs/argentine_match_interrogative-total-yn_Daniel-iba-a-Bolivia.wav,./stim/wavs/castilian_match_interrogative-total-yn_Daniel-iba-a-Bolivia.wav,./stim/wavs/chilean_match_interrogative-total-yn_Daniel-iba-a-Bolivia.wav,./stim/wavs/cuban_match_interrogative-total-yn_Daniel-iba-a-Bolivia.wav,./stim/wavs/mexican_match_interrogative-total-yn_Daniel-iba-a-Bolivia.wav,./stim/wavs/peruvian_match_interrogative-total-yn_Daniel-iba-a-Bolivia.wav,./stim/wavs/puertorican_match_interrogative-total-yn_Daniel-iba-a-Bolivia.wav,,,,,,,,,,,,,,,,,,,,,,,,,,,,,,,,,,,,,,,,,,,,,,,,,,,,,,,,
,,,,,,,jvc198,Mexican,Southern English,15,no,2021-02-14_13h41.01.370,empathy_intonation_perc,2020.2.10,MacIntel,60,,,,,,,,,,0,peruvian,0,1,0.0908,0,46,46,42,1,43,./stim/wavs/andalusian_mismatch_declarative-narrow-focus_El-nino-oye-el-rio.wav,./stim/wavs/argentine_mismatch_declarative-narrow-focus_El-nino-oye-el-rio.wav,./stim/wavs/castilian_mismatch_declarative-narrow-focus_El-nino-oye-el-rio.wav,./stim/wavs/chilean_mismatch_declarative-narrow-focus_El-nino-oye-el-rio.wav,./stim/wavs/cuban_mismatch_declarative-narrow-focus_El-nino-oye-el-rio.wav,./stim/wavs/mexican_mismatch_declarative-narrow-focus_El-nino-oye-el-rio.wav,./stim/wavs/peruvian_mismatch_declarative-narrow-focus_El-nino-oye-el-rio.wav,./stim/wavs/puertorican_mismatch_declarative-narrow-focus_El-nino-oye-el-rio.wav,,,,,,,,,,,,,,,,,,,,,,,,,,,,,,,,,,,,,,,,,,,,,,,,,,,,,,,,
,,,,,,,jvc198,Mexican,Southern English,15,no,2021-02-14_13h41.01.370,empathy_intonation_perc,2020.2.10,MacIntel,60,,,,,,,,,,1,puertorican,0,0,0.133865,0,47,47,61,1,62,./stim/wavs/andalusian_mismatch_interrogative-total-yn_Mi-madre-come-la-fruta.wav,./stim/wavs/argentine_mismatch_interrogative-total-yn_Mi-madre-come-la-fruta.wav,./stim/wavs/castilian_mismatch_interrogative-total-yn_Mi-madre-come-la-fruta.wav,./stim/wavs/chilean_mismatch_interrogative-total-yn_Mi-madre-come-la-fruta.wav,./stim/wavs/cuban_mismatch_interrogative-total-yn_Mi-madre-come-la-fruta.wav,./stim/wavs/mexican_mismatch_interrogative-total-yn_Mi-madre-come-la-fruta.wav,./stim/wavs/peruvian_mismatch_interrogative-total-yn_Mi-madre-come-la-fruta.wav,./stim/wavs/puertorican_mismatch_interrogative-total-yn_Mi-madre-come-la-fruta.wav,,,,,,,,,,,,,,,,,,,,,,,,,,,,,,,,,,,,,,,,,,,,,,,,,,,,,,,,
,,,,,,,jvc198,Mexican,Southern English,15,no,2021-02-14_13h41.01.370,empathy_intonation_perc,2020.2.10,MacIntel,60,,,,,,,,,,0,cuban,0,1,0.250345,0,48,48,36,1,37,./stim/wavs/andalusian_mismatch_declarative-broad-focus_La-nina-lava-el-plato.wav,./stim/wavs/argentine_mismatch_declarative-broad-focus_La-nina-lava-el-plato.wav,./stim/wavs/castilian_mismatch_declarative-broad-focus_La-nina-lava-el-plato.wav,./stim/wavs/chilean_mismatch_declarative-broad-focus_La-nina-lava-el-plato.wav,./stim/wavs/cuban_mismatch_declarative-broad-focus_La-nina-lava-el-plato.wav,./stim/wavs/mexican_mismatch_declarative-broad-focus_La-nina-lava-el-plato.wav,./stim/wavs/peruvian_mismatch_declarative-broad-focus_La-nina-lava-el-plato.wav,./stim/wavs/puertorican_mismatch_declarative-broad-focus_La-nina-lava-el-plato.wav,,,,,,,,,,,,,,,,,,,,,,,,,,,,,,,,,,,,,,,,,,,,,,,,,,,,,,,,
,,,,,,,jvc198,Mexican,Southern English,15,no,2021-02-14_13h41.01.370,empathy_intonation_perc,2020.2.10,MacIntel,60,,,,,,,,,,0,argentine,0,1,0.000515,0,49,49,37,1,38,./stim/wavs/andalusian_mismatch_declarative-broad-focus_Mi-madre-come-la-fruta.wav,./stim/wavs/argentine_mismatch_declarative-broad-focus_Mi-madre-come-la-fruta.wav,./stim/wavs/castilian_mismatch_declarative-broad-focus_Mi-madre-come-la-fruta.wav,./stim/wavs/chilean_mismatch_declarative-broad-focus_Mi-madre-come-la-fruta.wav,./stim/wavs/cuban_mismatch_declarative-broad-focus_Mi-madre-come-la-fruta.wav,./stim/wavs/mexican_mismatch_declarative-broad-focus_Mi-madre-come-la-fruta.wav,./stim/wavs/peruvian_mismatch_declarative-broad-focus_Mi-madre-come-la-fruta.wav,./stim/wavs/puertorican_mismatch_declarative-broad-focus_Mi-madre-come-la-fruta.wav,,,,,,,,,,,,,,,,,,,,,,,,,,,,,,,,,,,,,,,,,,,,,,,,,,,,,,,,
,,,,,,,jvc198,Mexican,Southern English,15,no,2021-02-14_13h41.01.370,empathy_intonation_perc,2020.2.10,MacIntel,60,,,,,,,,,,1,peruvian,1,1,2.10479,0,50,50,26,1,27,./stim/wavs/andalusian_match_interrogative-total-yn_David-leia-el-libro.wav,./stim/wavs/argentine_match_interrogative-total-yn_David-leia-el-libro.wav,./stim/wavs/castilian_match_interrogative-total-yn_David-leia-el-libro.wav,./stim/wavs/chilean_match_interrogative-total-yn_David-leia-el-libro.wav,./stim/wavs/cuban_match_interrogative-total-yn_David-leia-el-libro.wav,./stim/wavs/mexican_match_interrogative-total-yn_David-leia-el-libro.wav,./stim/wavs/peruvian_match_interrogative-total-yn_David-leia-el-libro.wav,./stim/wavs/puertorican_match_interrogative-total-yn_David-leia-el-libro.wav,,,,,,,,,,,,,,,,,,,,,,,,,,,,,,,,,,,,,,,,,,,,,,,,,,,,,,,,
,,,,,,,jvc198,Mexican,Southern English,15,no,2021-02-14_13h41.01.370,empathy_intonation_perc,2020.2.10,MacIntel,60,,,,,,,,,,0,peruvian,0,1,1.850385,0,51,51,38,1,39,./stim/wavs/andalusian_mismatch_declarative-broad-focus_Mi-novio-viene-del-lago.wav,./stim/wavs/argentine_mismatch_declarative-broad-focus_Mi-novio-viene-del-lago.wav,./stim/wavs/castilian_mismatch_declarative-broad-focus_Mi-novio-viene-del-lago.wav,./stim/wavs/chilean_mismatch_declarative-broad-focus_Mi-novio-viene-del-lago.wav,./stim/wavs/cuban_mismatch_declarative-broad-focus_Mi-novio-viene-del-lago.wav,./stim/wavs/mexican_mismatch_declarative-broad-focus_Mi-novio-viene-del-lago.wav,./stim/wavs/peruvian_mismatch_declarative-broad-focus_Mi-novio-viene-del-lago.wav,./stim/wavs/puertorican_mismatch_declarative-broad-focus_Mi-novio-viene-del-lago.wav,,,,,,,,,,,,,,,,,,,,,,,,,,,,,,,,,,,,,,,,,,,,,,,,,,,,,,,,
,,,,,,,jvc198,Mexican,Southern English,15,no,2021-02-14_13h41.01.370,empathy_intonation_perc,2020.2.10,MacIntel,60,,,,,,,,,,1,mexican,0,0,0.934145,0,52,52,48,1,49,./stim/wavs/andalusian_mismatch_interrogative-partial-wh_Cuando-comia-la-fruta.wav,./stim/wavs/argentine_mismatch_interrogative-partial-wh_Cuando-comia-la-fruta.wav,./stim/wavs/castilian_mismatch_interrogative-partial-wh_Cuando-comia-la-fruta.wav,./stim/wavs/chilean_mismatch_interrogative-partial-wh_Cuando-comia-la-fruta.wav,./stim/wavs/cuban_mismatch_interrogative-partial-wh_Cuando-comia-la-fruta.wav,./stim/wavs/mexican_mismatch_interrogative-partial-wh_Cuando-comia-la-fruta.wav,./stim/wavs/peruvian_mismatch_interrogative-partial-wh_Cuando-comia-la-fruta.wav,./stim/wavs/puertorican_mismatch_interrogative-partial-wh_Cuando-comia-la-fruta.wav,,,,,,,,,,,,,,,,,,,,,,,,,,,,,,,,,,,,,,,,,,,,,,,,,,,,,,,,
,,,,,,,jvc198,Mexican,Southern English,15,no,2021-02-14_13h41.01.370,empathy_intonation_perc,2020.2.10,MacIntel,60,,,,,,,,,,1,chilean,0,0,0.3444,0,53,53,23,1,24,./stim/wavs/andalusian_match_interrogative-partial-wh_Por-que-iba-a-Bolivia.wav,./stim/wavs/argentine_match_interrogative-partial-wh_Por-que-iba-a-Bolivia.wav,./stim/wavs/castilian_match_interrogative-partial-wh_Por-que-iba-a-Bolivia.wav,./stim/wavs/chilean_match_interrogative-partial-wh_Por-que-iba-a-Bolivia.wav,./stim/wavs/cuban_match_interrogative-partial-wh_Por-que-iba-a-Bolivia.wav,./stim/wavs/mexican_match_interrogative-partial-wh_Por-que-iba-a-Bolivia.wav,./stim/wavs/peruvian_match_interrogative-partial-wh_Por-que-iba-a-Bolivia.wav,./stim/wavs/puertorican_match_interrogative-partial-wh_Por-que-iba-a-Bolivia.wav,,,,,,,,,,,,,,,,,,,,,,,,,,,,,,,,,,,,,,,,,,,,,,,,,,,,,,,,
,,,,,,,jvc198,Mexican,Southern English,15,no,2021-02-14_13h41.01.370,empathy_intonation_perc,2020.2.10,MacIntel,60,,,,,,,,,,1,peruvian,0,0,0.636855,0,54,54,31,1,32,./stim/wavs/andalusian_match_interrogative-total-yn_Marta-abre-el-regalo.wav,./stim/wavs/argentine_match_interrogative-total-yn_Marta-abre-el-regalo.wav,./stim/wavs/castilian_match_interrogative-total-yn_Marta-abre-el-regalo.wav,./stim/wavs/chilean_match_interrogative-total-yn_Marta-abre-el-regalo.wav,./stim/wavs/cuban_match_interrogative-total-yn_Marta-abre-el-regalo.wav,./stim/wavs/mexican_match_interrogative-total-yn_Marta-abre-el-regalo.wav,./stim/wavs/peruvian_match_interrogative-total-yn_Marta-abre-el-regalo.wav,./stim/wavs/puertorican_match_interrogative-total-yn_Marta-abre-el-regalo.wav,,,,,,,,,,,,,,,,,,,,,,,,,,,,,,,,,,,,,,,,,,,,,,,,,,,,,,,,
,,,,,,,jvc198,Mexican,Southern English,15,no,2021-02-14_13h41.01.370,empathy_intonation_perc,2020.2.10,MacIntel,60,,,,,,,,,,0,andalusian,0,1,1.162715,0,55,55,13,1,14,./stim/wavs/andalusian_match_declarative-narrow-focus_Maria-bebe-el-vino.wav,./stim/wavs/argentine_match_declarative-narrow-focus_Maria-bebe-el-vino.wav,./stim/wavs/castilian_match_declarative-narrow-focus_Maria-bebe-el-vino.wav,./stim/wavs/chilean_match_declarative-narrow-focus_Maria-bebe-el-vino.wav,./stim/wavs/cuban_match_declarative-narrow-focus_Maria-bebe-el-vino.wav,./stim/wavs/mexican_match_declarative-narrow-focus_Maria-bebe-el-vino.wav,./stim/wavs/peruvian_match_declarative-narrow-focus_Maria-bebe-el-vino.wav,./stim/wavs/puertorican_match_declarative-narrow-focus_Maria-bebe-el-vino.wav,,,,,,,,,,,,,,,,,,,,,,,,,,,,,,,,,,,,,,,,,,,,,,,,,,,,,,,,
,,,,,,,jvc198,Mexican,Southern English,15,no,2021-02-14_13h41.01.370,empathy_intonation_perc,2020.2.10,MacIntel,60,,,,,,,,,,0,peruvian,0,1,0.807045,0,56,56,11,1,12,./stim/wavs/andalusian_match_declarative-narrow-focus_Emilio-ama-la-marcha.wav,./stim/wavs/argentine_match_declarative-narrow-focus_Emilio-ama-la-marcha.wav,./stim/wavs/castilian_match_declarative-narrow-focus_Emilio-ama-la-marcha.wav,./stim/wavs/chilean_match_declarative-narrow-focus_Emilio-ama-la-marcha.wav,./stim/wavs/cuban_match_declarative-narrow-focus_Emilio-ama-la-marcha.wav,./stim/wavs/mexican_match_declarative-narrow-focus_Emilio-ama-la-marcha.wav,./stim/wavs/peruvian_match_declarative-narrow-focus_Emilio-ama-la-marcha.wav,./stim/wavs/puertorican_match_declarative-narrow-focus_Emilio-ama-la-marcha.wav,,,,,,,,,,,,,,,,,,,,,,,,,,,,,,,,,,,,,,,,,,,,,,,,,,,,,,,,
,,,,,,,jvc198,Mexican,Southern English,15,no,2021-02-14_13h41.01.370,empathy_intonation_perc,2020.2.10,MacIntel,60,,,,,,,,,,1,castilian,0,0,1.634345,0,57,57,19,1,20,./stim/wavs/andalusian_match_interrogative-partial-wh_Cuando-vendia-el-carro.wav,./stim/wavs/argentine_match_interrogative-partial-wh_Cuando-vendia-el-carro.wav,./stim/wavs/castilian_match_interrogative-partial-wh_Cuando-vendia-el-carro.wav,./stim/wavs/chilean_match_interrogative-partial-wh_Cuando-vendia-el-carro.wav,./stim/wavs/cuban_match_interrogative-partial-wh_Cuando-vendia-el-carro.wav,./stim/wavs/mexican_match_interrogative-partial-wh_Cuando-vendia-el-carro.wav,./stim/wavs/peruvian_match_interrogative-partial-wh_Cuando-vendia-el-carro.wav,./stim/wavs/puertorican_match_interrogative-partial-wh_Cuando-vendia-el-carro.wav,,,,,,,,,,,,,,,,,,,,,,,,,,,,,,,,,,,,,,,,,,,,,,,,,,,,,,,,
,,,,,,,jvc198,Mexican,Southern English,15,no,2021-02-14_13h41.01.370,empathy_intonation_perc,2020.2.10,MacIntel,60,,,,,,,,,,0,argentine,0,1,1.48409,0,58,58,44,1,45,./stim/wavs/andalusian_mismatch_declarative-narrow-focus_La-nina-lava-el-plato.wav,./stim/wavs/argentine_mismatch_declarative-narrow-focus_La-nina-lava-el-plato.wav,./stim/wavs/castilian_mismatch_declarative-narrow-focus_La-nina-lava-el-plato.wav,./stim/wavs/chilean_mismatch_declarative-narrow-focus_La-nina-lava-el-plato.wav,./stim/wavs/cuban_mismatch_declarative-narrow-focus_La-nina-lava-el-plato.wav,./stim/wavs/mexican_mismatch_declarative-narrow-focus_La-nina-lava-el-plato.wav,./stim/wavs/peruvian_mismatch_declarative-narrow-focus_La-nina-lava-el-plato.wav,./stim/wavs/puertorican_mismatch_declarative-narrow-focus_La-nina-lava-el-plato.wav,,,,,,,,,,,,,,,,,,,,,,,,,,,,,,,,,,,,,,,,,,,,,,,,,,,,,,,,
,,,,,,,jvc198,Mexican,Southern English,15,no,2021-02-14_13h41.01.370,empathy_intonation_perc,2020.2.10,MacIntel,60,,,,,,,,,,1,cuban,0,0,2.389235,0,59,59,51,1,52,./stim/wavs/andalusian_mismatch_interrogative-partial-wh_Por-que-desayuna-muy-bien.wav,./stim/wavs/argentine_mismatch_interrogative-partial-wh_Por-que-desayuna-muy-bien.wav,./stim/wavs/castilian_mismatch_interrogative-partial-wh_Por-que-desayuna-muy-bien.wav,./stim/wavs/chilean_mismatch_interrogative-partial-wh_Por-que-desayuna-muy-bien.wav,./stim/wavs/cuban_mismatch_interrogative-partial-wh_Por-que-desayuna-muy-bien.wav,./stim/wavs/mexican_mismatch_interrogative-partial-wh_Por-que-desayuna-muy-bien.wav,./stim/wavs/peruvian_mismatch_interrogative-partial-wh_Por-que-desayuna-muy-bien.wav,./stim/wavs/puertorican_mismatch_interrogative-partial-wh_Por-que-desayuna-muy-bien.wav,,,,,,,,,,,,,,,,,,,,,,,,,,,,,,,,,,,,,,,,,,,,,,,,,,,,,,,,
,,,,,,,jvc198,Mexican,Southern English,15,no,2021-02-14_13h41.01.370,empathy_intonation_perc,2020.2.10,MacIntel,60,,,,,,,,,,1,argentine,0,0,0.19503,0,60,60,20,1,21,./stim/wavs/andalusian_match_interrogative-partial-wh_Por-que-abre-el-regalo.wav,./stim/wavs/argentine_match_interrogative-partial-wh_Por-que-abre-el-regalo.wav,./stim/wavs/castilian_match_interrogative-partial-wh_Por-que-abre-el-regalo.wav,./stim/wavs/chilean_match_interrogative-partial-wh_Por-que-abre-el-regalo.wav,./stim/wavs/cuban_match_interrogative-partial-wh_Por-que-abre-el-regalo.wav,./stim/wavs/mexican_match_interrogative-partial-wh_Por-que-abre-el-regalo.wav,./stim/wavs/peruvian_match_interrogative-partial-wh_Por-que-abre-el-regalo.wav,./stim/wavs/puertorican_match_interrogative-partial-wh_Por-que-abre-el-regalo.wav,,,,,,,,,,,,,,,,,,,,,,,,,,,,,,,,,,,,,,,,,,,,,,,,,,,,,,,,
,,,,,,,jvc198,Mexican,Southern English,15,no,2021-02-14_13h41.01.370,empathy_intonation_perc,2020.2.10,MacIntel,60,,,,,,,,,,1,chilean,0,0,3.54258,0,61,61,58,1,59,./stim/wavs/andalusian_mismatch_interrogative-total-yn_El-nino-oye-el-rio.wav,./stim/wavs/argentine_mismatch_interrogative-total-yn_El-nino-oye-el-rio.wav,./stim/wavs/castilian_mismatch_interrogative-total-yn_El-nino-oye-el-rio.wav,./stim/wavs/chilean_mismatch_interrogative-total-yn_El-nino-oye-el-rio.wav,./stim/wavs/cuban_mismatch_interrogative-total-yn_El-nino-oye-el-rio.wav,./stim/wavs/mexican_mismatch_interrogative-total-yn_El-nino-oye-el-rio.wav,./stim/wavs/peruvian_mismatch_interrogative-total-yn_El-nino-oye-el-rio.wav,./stim/wavs/puertorican_mismatch_interrogative-total-yn_El-nino-oye-el-rio.wav,,,,,,,,,,,,,,,,,,,,,,,,,,,,,,,,,,,,,,,,,,,,,,,,,,,,,,,,
,,,,,,,jvc198,Mexican,Southern English,15,no,2021-02-14_13h41.01.370,empathy_intonation_perc,2020.2.10,MacIntel,60,,,,,,,,,,0,peruvian,0,1,1.833215,0,62,62,34,1,35,./stim/wavs/andalusian_mismatch_declarative-broad-focus_El-nino-oye-el-rio.wav,./stim/wavs/argentine_mismatch_declarative-broad-focus_El-nino-oye-el-rio.wav,./stim/wavs/castilian_mismatch_declarative-broad-focus_El-nino-oye-el-rio.wav,./stim/wavs/chilean_mismatch_declarative-broad-focus_El-nino-oye-el-rio.wav,./stim/wavs/cuban_mismatch_declarative-broad-focus_El-nino-oye-el-rio.wav,./stim/wavs/mexican_mismatch_declarative-broad-focus_El-nino-oye-el-rio.wav,./stim/wavs/peruvian_mismatch_declarative-broad-focus_El-nino-oye-el-rio.wav,./stim/wavs/puertorican_mismatch_declarative-broad-focus_El-nino-oye-el-rio.wav,,,,,,,,,,,,,,,,,,,,,,,,,,,,,,,,,,,,,,,,,,,,,,,,,,,,,,,,
,,,,,,,jvc198,Mexican,Southern English,15,no,2021-02-14_13h41.01.370,empathy_intonation_perc,2020.2.10,MacIntel,60,,,,,,,,,,0,peruvian,0,1,1.62333,0,63,63,33,1,34,./stim/wavs/andalusian_mismatch_declarative-broad-focus_El-hombre-mira-la-luna.wav,./stim/wavs/argentine_mismatch_declarative-broad-focus_El-hombre-mira-la-luna.wav,./stim/wavs/castilian_mismatch_declarative-broad-focus_El-hombre-mira-la-luna.wav,./stim/wavs/chilean_mismatch_declarative-broad-focus_El-hombre-mira-la-luna.wav,./stim/wavs/cuban_mismatch_declarative-broad-focus_El-hombre-mira-la-luna.wav,./stim/wavs/mexican_mismatch_declarative-broad-focus_El-hombre-mira-la-luna.wav,./stim/wavs/peruvian_mismatch_declarative-broad-focus_El-hombre-mira-la-luna.wav,./stim/wavs/puertorican_mismatch_declarative-broad-focus_El-hombre-mira-la-luna.wav,,,,,,,,,,,,,,,,,,,,,,,,,,,,,,,,,,,,,,,,,,,,,,,,,,,,,,,,
,,,,,,,jvc198,Mexican,Southern English,15,no,2021-02-14_13h41.01.370,empathy_intonation_perc,2020.2.10,MacIntel,60,,,,,,,,,,,,,,,,,,,,,,,,,,,,,0,0,0.21846,0,0,0,0,1,,,,,,,,,,,,,,,,,,,,,,,,,,,,,,,,,,,,,,,,,,,,,,,,
,,,,,"Great! Now we will move on. The next task consists of about 60 trials, in each of which you will see a string of letters. 
  
  Your task is to decide whether this is a real Spanish word or not.",(press the spacebar to continue),jvc198,Mexican,Southern English,15,no,2021-02-14_13h41.01.370,empathy_intonation_perc,2020.2.10,MacIntel,60,,,,,,,,,,,,,,,,,,,,,,,,,,,,,,,,,,,,,0,0,0,0,1,,,,,,,,,,,,,,,,,,,,,,,,,,,,,,,,,,,,,,,,,,,
,,,,,"If you think it is an existing Spanish word, you type '1' (for 'REAL'), and if you think it is not an existing Spanish word, you type '0' (for 'FAKE').",(press the spacebar to continue),jvc198,Mexican,Southern English,15,no,2021-02-14_13h41.01.370,empathy_intonation_perc,2020.2.10,MacIntel,60,,,,,,,,,,,,,,,,,,,,,,,,,,,,,,,,,,,,,0,1,1,1,1,,,,,,,,,,,,,,,,,,,,,,,,,,,,,,,,,,,,,,,,,,,
,,,,,"If you are sure that the word exists, even though you dont know its exact meaning, you may still respond '1' (REAL). 
  
  But if you are not sure if it is an existing word, you should respond '0' (FAKE).
  
  Let's do a practice round...",(press the spacebar to continue),jvc198,Mexican,Southern English,15,no,2021-02-14_13h41.01.370,empathy_intonation_perc,2020.2.10,MacIntel,60,,,,,,,,,,,,,,,,,,,,,,,,,,,,,,,,,,,,,0,2,2,2,1,,,,,,,,,,,,,,,,,,,,,,,,,,,,,,,,,,,,,,,,,,,
,,,,,,,jvc198,Mexican,Southern English,15,no,2021-02-14_13h41.01.370,empathy_intonation_perc,2020.2.10,MacIntel,60,,,,,,,,,,0,,,,,,,,,,,,,,,,,,,,,,,,,,,,,,,,0,1,0.268215,0,0,0,0,1,0,depiste,REAL,FAKE,,,,,,,,,,,,,,,,,,,,,,,,,,,,,,,
,,,,,,,jvc198,Mexican,Southern English,15,no,2021-02-14_13h41.01.370,empathy_intonation_perc,2020.2.10,MacIntel,60,,,,,,,,,,1,,,,,,,,,,,,,,,,,,,,,,,,,,,,,,,,0,0,0.067155,0,1,1,1,1,0,s,REAL,FAKE,,,,,,,,,,,,,,,,,,,,,,,,,,,,,,,
,,,,,,,jvc198,Mexican,Southern English,15,no,2021-02-14_13h41.01.370,empathy_intonation_perc,2020.2.10,MacIntel,60,,,,,,,,,,0,,,,,,,,,,,,,,,,,,,,,,,,,,,,,,,,0,1,0.084745,0,2,2,2,1,0,con,REAL,FAKE,,,,,,,,,,,,,,,,,,,,,,,,,,,,,,,
,,,,,,,jvc198,Mexican,Southern English,15,no,2021-02-14_13h41.01.370,empathy_intonation_perc,2020.2.10,MacIntel,60,,,,,,,,,,0,,,,,,,,,,,,,,,,,,,,,,,,,,,,,,,,0,1,0.232445,0,3,3,3,1,0,calpar,REAL,FAKE,,,,,,,,,,,,,,,,,,,,,,,,,,,,,,,
,,,,,,,jvc198,Mexican,Southern English,15,no,2021-02-14_13h41.01.370,empathy_intonation_perc,2020.2.10,MacIntel,60,,,,,,,,,,0,,,,,,,,,,,,,,,,,,,,,,,,,,,,,,,,0,1,0.06626,0,4,4,4,1,0,joten,REAL,FAKE,,,,,,,,,,,,,,,,,,,,,,,,,,,,,,,
,,,,,,,jvc198,Mexican,Southern English,15,no,2021-02-14_13h41.01.370,empathy_intonation_perc,2020.2.10,MacIntel,60,,,,,,,,,,1,,,,,,,,,,,,,,,,,,,,,,,,,,,,,,,,0,0,0.20392,0,5,5,5,1,0,sacapuntas,REAL,FAKE,,,,,,,,,,,,,,,,,,,,,,,,,,,,,,,
,,,,,,,jvc198,Mexican,Southern English,15,no,2021-02-14_13h41.01.370,empathy_intonation_perc,2020.2.10,MacIntel,60,,,,,,,,,,0,,,,,,,,,,,,,,,,,,,,,,,,,,,,,,,,0,1,0.166915,0,6,6,6,1,0,priba,REAL,FAKE,,,,,,,,,,,,,,,,,,,,,,,,,,,,,,,
,,,,,,,jvc198,Mexican,Southern English,15,no,2021-02-14_13h41.01.370,empathy_intonation_perc,2020.2.10,MacIntel,60,,,,,,,,,,0,,,,,,,,,,,,,,,,,,,,,,,,,,,,,,,,0,1,0.12261,0,7,7,7,1,0,pelasula,REAL,FAKE,,,,,,,,,,,,,,,,,,,,,,,,,,,,,,,
,,,,,,,jvc198,Mexican,Southern English,15,no,2021-02-14_13h41.01.370,empathy_intonation_perc,2020.2.10,MacIntel,60,,,,,,,,,,1,,,,,,,,,,,,,,,,,,,,,,,,,,,,,,,,0,0,0.331675,0,8,8,8,1,0,bien,REAL,FAKE,,,,,,,,,,,,,,,,,,,,,,,,,,,,,,,
,,,,,,,jvc198,Mexican,Southern English,15,no,2021-02-14_13h41.01.370,empathy_intonation_perc,2020.2.10,MacIntel,60,,,,,,,,,,1,,,,,,,,,,,,,,,,,,,,,,,,,,,,,,,,0,0,0.012185,0,9,9,9,1,0,casa,REAL,FAKE,,,,,,,,,,,,,,,,,,,,,,,,,,,,,,,
,,,,,,,jvc198,Mexican,Southern English,15,no,2021-02-14_13h41.01.370,empathy_intonation_perc,2020.2.10,MacIntel,60,,,,,,,,,,0,,,,,,,,,,,,,,,,,,,,,,,,,,,,,,,,0,1,0.16694,0,10,10,10,1,0,lejo,REAL,FAKE,,,,,,,,,,,,,,,,,,,,,,,,,,,,,,,
,,,,,,,jvc198,Mexican,Southern English,15,no,2021-02-14_13h41.01.370,empathy_intonation_perc,2020.2.10,MacIntel,60,,,,,,,,,,0,,,,,,,,,,,,,,,,,,,,,,,,,,,,,,,,0,1,0.150145,0,11,11,11,1,0,pretantas,REAL,FAKE,,,,,,,,,,,,,,,,,,,,,,,,,,,,,,,
,,,,,,,jvc198,Mexican,Southern English,15,no,2021-02-14_13h41.01.370,empathy_intonation_perc,2020.2.10,MacIntel,60,,,,,,,,,,1,,,,,,,,,,,,,,,,,,,,,,,,,,,,,,,,,,,,,,,,28,merodear,,,0,0,0.550555,0,0,0,27,1,REAL,FAKE,,,,,,,,,,,,,,,,,,,,,
,,,,,,,jvc198,Mexican,Southern English,15,no,2021-02-14_13h41.01.370,empathy_intonation_perc,2020.2.10,MacIntel,60,,,,,,,,,,1,,,,,,,,,,,,,,,,,,,,,,,,,,,,,,,,,,,,,,,,89,prisa,,,1,1,0.283385,0,1,1,88,1,REAL,FAKE,,,,,,,,,,,,,,,,,,,,,
,,,,,,,jvc198,Mexican,Southern English,15,no,2021-02-14_13h41.01.370,empathy_intonation_perc,2020.2.10,MacIntel,60,,,,,,,,,,1,,,,,,,,,,,,,,,,,,,,,,,,,,,,,,,,,,,,,,,,25,bisagra,,,0,0,0.0336,0,2,2,24,1,REAL,FAKE,,,,,,,,,,,,,,,,,,,,,
,,,,,,,jvc198,Mexican,Southern English,15,no,2021-02-14_13h41.01.370,empathy_intonation_perc,2020.2.10,MacIntel,60,,,,,,,,,,1,,,,,,,,,,,,,,,,,,,,,,,,,,,,,,,,,,,,,,,,88,acantilado,,,0,0,0.039275,0,3,3,87,1,REAL,FAKE,,,,,,,,,,,,,,,,,,,,,
,,,,,,,jvc198,Mexican,Southern English,15,no,2021-02-14_13h41.01.370,empathy_intonation_perc,2020.2.10,MacIntel,60,,,,,,,,,,1,,,,,,,,,,,,,,,,,,,,,,,,,,,,,,,,,,,,,,,,6,tergiversar,,,0,0,0.049915,0,4,4,5,1,REAL,FAKE,,,,,,,,,,,,,,,,,,,,,
,,,,,,,jvc198,Mexican,Southern English,15,no,2021-02-14_13h41.01.370,empathy_intonation_perc,2020.2.10,MacIntel,60,,,,,,,,,,1,,,,,,,,,,,,,,,,,,,,,,,,,,,,,,,,,,,,,,,,22,lacayo,,,0,0,0.000305,0,5,5,21,1,REAL,FAKE,,,,,,,,,,,,,,,,,,,,,
,,,,,,,jvc198,Mexican,Southern English,15,no,2021-02-14_13h41.01.370,empathy_intonation_perc,2020.2.10,MacIntel,60,,,,,,,,,,0,,,,,,,,,,,,,,,,,,,,,,,,,,,,,,,,,,,,,,,,84,escuto,,,0,1,0.032645,0,6,6,83,1,REAL,FAKE,,,,,,,,,,,,,,,,,,,,,
,,,,,,,jvc198,Mexican,Southern English,15,no,2021-02-14_13h41.01.370,empathy_intonation_perc,2020.2.10,MacIntel,60,,,,,,,,,,1,,,,,,,,,,,,,,,,,,,,,,,,,,,,,,,,,,,,,,,,9,hacha,,,0,0,0.03328,0,7,7,8,1,REAL,FAKE,,,,,,,,,,,,,,,,,,,,,
,,,,,,,jvc198,Mexican,Southern English,15,no,2021-02-14_13h41.01.370,empathy_intonation_perc,2020.2.10,MacIntel,60,,,,,,,,,,0,,,,,,,,,,,,,,,,,,,,,,,,,,,,,,,,,,,,,,,,63,esposante,,,0,1,0.03944,0,8,8,62,1,REAL,FAKE,,,,,,,,,,,,,,,,,,,,,
,,,,,,,jvc198,Mexican,Southern English,15,no,2021-02-14_13h41.01.370,empathy_intonation_perc,2020.2.10,MacIntel,60,,,,,,,,,,0,,,,,,,,,,,,,,,,,,,,,,,,,,,,,,,,,,,,,,,,8,cadea,,,0,1,0.003805,0,9,9,7,1,REAL,FAKE,,,,,,,,,,,,,,,,,,,,,
,,,,,,,jvc198,Mexican,Southern English,15,no,2021-02-14_13h41.01.370,empathy_intonation_perc,2020.2.10,MacIntel,60,,,,,,,,,,1,,,,,,,,,,,,,,,,,,,,,,,,,,,,,,,,,,,,,,,,80,hormiga,,,0,0,0.06646,0,10,10,79,1,REAL,FAKE,,,,,,,,,,,,,,,,,,,,,
,,,,,,,jvc198,Mexican,Southern English,15,no,2021-02-14_13h41.01.370,empathy_intonation_perc,2020.2.10,MacIntel,60,,,,,,,,,,1,,,,,,,,,,,,,,,,,,,,,,,,,,,,,,,,,,,,,,,,37,granuja,,,0,0,0.04386,0,11,11,36,1,REAL,FAKE,,,,,,,,,,,,,,,,,,,,,
,,,,,,,jvc198,Mexican,Southern English,15,no,2021-02-14_13h41.01.370,empathy_intonation_perc,2020.2.10,MacIntel,60,,,,,,,,,,1,,,,,,,,,,,,,,,,,,,,,,,,,,,,,,,,,,,,,,,,7,psimo,,,0,0,0.104855,0,12,12,6,1,REAL,FAKE,,,,,,,,,,,,,,,,,,,,,
,,,,,,,jvc198,Mexican,Southern English,15,no,2021-02-14_13h41.01.370,empathy_intonation_perc,2020.2.10,MacIntel,60,,,,,,,,,,1,,,,,,,,,,,,,,,,,,,,,,,,,,,,,,,,,,,,,,,,20,vido,,,0,0,0.056435,0,13,13,19,1,REAL,FAKE,,,,,,,,,,,,,,,,,,,,,
,,,,,,,jvc198,Mexican,Southern English,15,no,2021-02-14_13h41.01.370,empathy_intonation_perc,2020.2.10,MacIntel,60,,,,,,,,,,1,,,,,,,,,,,,,,,,,,,,,,,,,,,,,,,,,,,,,,,,81,pozo,,,0,0,0.06658,0,14,14,80,1,REAL,FAKE,,,,,,,,,,,,,,,,,,,,,
,,,,,,,jvc198,Mexican,Southern English,15,no,2021-02-14_13h41.01.370,empathy_intonation_perc,2020.2.10,MacIntel,60,,,,,,,,,,1,,,,,,,,,,,,,,,,,,,,,,,,,,,,,,,,,,,,,,,,31,pandilla,,,0,0,0.012695,0,15,15,30,1,REAL,FAKE,,,,,,,,,,,,,,,,,,,,,
,,,,,,,jvc198,Mexican,Southern English,15,no,2021-02-14_13h41.01.370,empathy_intonation_perc,2020.2.10,MacIntel,60,,,,,,,,,,1,,,,,,,,,,,,,,,,,,,,,,,,,,,,,,,,,,,,,,,,78,frondoso,,,0,0,0.071595,0,16,16,77,1,REAL,FAKE,,,,,,,,,,,,,,,,,,,,,
,,,,,,,jvc198,Mexican,Southern English,15,no,2021-02-14_13h41.01.370,empathy_intonation_perc,2020.2.10,MacIntel,60,,,,,,,,,,0,,,,,,,,,,,,,,,,,,,,,,,,,,,,,,,,,,,,,,,,82,empirador,,,0,1,0.10037,0,17,17,81,1,REAL,FAKE,,,,,,,,,,,,,,,,,,,,,
,,,,,,,jvc198,Mexican,Southern English,15,no,2021-02-14_13h41.01.370,empathy_intonation_perc,2020.2.10,MacIntel,60,,,,,,,,,,1,,,,,,,,,,,,,,,,,,,,,,,,,,,,,,,,,,,,,,,,68,alegre,,,0,0,0.077985,0,18,18,67,1,REAL,FAKE,,,,,,,,,,,,,,,,,,,,,
,,,,,,,jvc198,Mexican,Southern English,15,no,2021-02-14_13h41.01.370,empathy_intonation_perc,2020.2.10,MacIntel,60,,,,,,,,,,0,,,,,,,,,,,,,,,,,,,,,,,,,,,,,,,,,,,,,,,,33,pauca,,,0,1,0.11649,0,19,19,32,1,REAL,FAKE,,,,,,,,,,,,,,,,,,,,,
,,,,,,,jvc198,Mexican,Southern English,15,no,2021-02-14_13h41.01.370,empathy_intonation_perc,2020.2.10,MacIntel,60,,,,,,,,,,0,,,,,,,,,,,,,,,,,,,,,,,,,,,,,,,,,,,,,,,,87,grodo,,,0,1,0.05568,0,20,20,86,1,REAL,FAKE,,,,,,,,,,,,,,,,,,,,,
,,,,,,,jvc198,Mexican,Southern English,15,no,2021-02-14_13h41.01.370,empathy_intonation_perc,2020.2.10,MacIntel,60,,,,,,,,,,1,,,,,,,,,,,,,,,,,,,,,,,,,,,,,,,,,,,,,,,,85,lad,,,0,0,0.08316,0,21,21,84,1,REAL,FAKE,,,,,,,,,,,,,,,,,,,,,
,,,,,,,jvc198,Mexican,Southern English,15,no,2021-02-14_13h41.01.370,empathy_intonation_perc,2020.2.10,MacIntel,60,,,,,,,,,,1,,,,,,,,,,,,,,,,,,,,,,,,,,,,,,,,,,,,,,,,3,pulmones,,,0,0,0.10265,0,22,22,2,1,REAL,FAKE,,,,,,,,,,,,,,,,,,,,,
,,,,,,,jvc198,Mexican,Southern English,15,no,2021-02-14_13h41.01.370,empathy_intonation_perc,2020.2.10,MacIntel,60,,,,,,,,,,0,,,,,,,,,,,,,,,,,,,,,,,,,,,,,,,,,,,,,,,,53,vegada,,,0,1,0.15014,0,23,23,52,1,REAL,FAKE,,,,,,,,,,,,,,,,,,,,,
,,,,,,,jvc198,Mexican,Southern English,15,no,2021-02-14_13h41.01.370,empathy_intonation_perc,2020.2.10,MacIntel,60,,,,,,,,,,1,,,,,,,,,,,,,,,,,,,,,,,,,,,,,,,,,,,,,,,,38,estornudar,,,0,0,0.061715,0,24,24,37,1,REAL,FAKE,,,,,,,,,,,,,,,,,,,,,
,,,,,,,jvc198,Mexican,Southern English,15,no,2021-02-14_13h41.01.370,empathy_intonation_perc,2020.2.10,MacIntel,60,,,,,,,,,,1,,,,,,,,,,,,,,,,,,,,,,,,,,,,,,,,,,,,,,,,60,matar,,,0,0,0.023885,0,25,25,59,1,REAL,FAKE,,,,,,,,,,,,,,,,,,,,,
,,,,,,,jvc198,Mexican,Southern English,15,no,2021-02-14_13h41.01.370,empathy_intonation_perc,2020.2.10,MacIntel,60,,,,,,,,,,1,,,,,,,,,,,,,,,,,,,,,,,,,,,,,,,,,,,,,,,,86,barato,,,0,0,0.06663,0,26,26,85,1,REAL,FAKE,,,,,,,,,,,,,,,,,,,,,
,,,,,,,jvc198,Mexican,Southern English,15,no,2021-02-14_13h41.01.370,empathy_intonation_perc,2020.2.10,MacIntel,60,,,,,,,,,,1,,,,,,,,,,,,,,,,,,,,,,,,,,,,,,,,,,,,,,,,76,atar,,,0,0,0.072305,0,27,27,75,1,REAL,FAKE,,,,,,,,,,,,,,,,,,,,,
,,,,,,,jvc198,Mexican,Southern English,15,no,2021-02-14_13h41.01.370,empathy_intonation_perc,2020.2.10,MacIntel,60,,,,,,,,,,1,,,,,,,,,,,,,,,,,,,,,,,,,,,,,,,,,,,,,,,,46,martillo,,,0,0,0.09014,0,28,28,45,1,REAL,FAKE,,,,,,,,,,,,,,,,,,,,,
,,,,,,,jvc198,Mexican,Southern English,15,no,2021-02-14_13h41.01.370,empathy_intonation_perc,2020.2.10,MacIntel,60,,,,,,,,,,1,,,,,,,,,,,,,,,,,,,,,,,,,,,,,,,,,,,,,,,,71,polvoriento,,,0,0,0.105545,0,29,29,70,1,REAL,FAKE,,,,,,,,,,,,,,,,,,,,,
,,,,,,,jvc198,Mexican,Southern English,15,no,2021-02-14_13h41.01.370,empathy_intonation_perc,2020.2.10,MacIntel,60,,,,,,,,,,1,,,,,,,,,,,,,,,,,,,,,,,,,,,,,,,,,,,,,,,,55,nevar,,,0,0,0.070645,0,30,30,54,1,REAL,FAKE,,,,,,,,,,,,,,,,,,,,,
,,,,,,,jvc198,Mexican,Southern English,15,no,2021-02-14_13h41.01.370,empathy_intonation_perc,2020.2.10,MacIntel,60,,,,,,,,,,0,,,,,,,,,,,,,,,,,,,,,,,,,,,,,,,,,,,,,,,,16,abracer,,,0,1,0.118855,0,31,31,15,1,REAL,FAKE,,,,,,,,,,,,,,,,,,,,,
,,,,,,,jvc198,Mexican,Southern English,15,no,2021-02-14_13h41.01.370,empathy_intonation_perc,2020.2.10,MacIntel,60,,,,,,,,,,1,,,,,,,,,,,,,,,,,,,,,,,,,,,,,,,,,,,,,,,,52,camisa,,,0,0,0.13424,0,32,32,51,1,REAL,FAKE,,,,,,,,,,,,,,,,,,,,,
,,,,,,,jvc198,Mexican,Southern English,15,no,2021-02-14_13h41.01.370,empathy_intonation_perc,2020.2.10,MacIntel,60,,,,,,,,,,1,,,,,,,,,,,,,,,,,,,,,,,,,,,,,,,,,,,,,,,,77,tiburn,,,0,0,0.12824,0,33,33,76,1,REAL,FAKE,,,,,,,,,,,,,,,,,,,,,
,,,,,,,jvc198,Mexican,Southern English,15,no,2021-02-14_13h41.01.370,empathy_intonation_perc,2020.2.10,MacIntel,60,,,,,,,,,,0,,,,,,,,,,,,,,,,,,,,,,,,,,,,,,,,,,,,,,,,23,lampera,,,0,1,0.099985,0,34,34,22,1,REAL,FAKE,,,,,,,,,,,,,,,,,,,,,
,,,,,,,jvc198,Mexican,Southern English,15,no,2021-02-14_13h41.01.370,empathy_intonation_perc,2020.2.10,MacIntel,60,,,,,,,,,,1,,,,,,,,,,,,,,,,,,,,,,,,,,,,,,,,,,,,,,,,26,secuestro,,,0,0,0.13059,0,35,35,25,1,REAL,FAKE,,,,,,,,,,,,,,,,,,,,,
,,,,,,,jvc198,Mexican,Southern English,15,no,2021-02-14_13h41.01.370,empathy_intonation_perc,2020.2.10,MacIntel,60,,,,,,,,,,1,,,,,,,,,,,,,,,,,,,,,,,,,,,,,,,,,,,,,,,,14,yunque,,,0,0,0.13297,0,36,36,13,1,REAL,FAKE,,,,,,,,,,,,,,,,,,,,,
,,,,,,,jvc198,Mexican,Southern English,15,no,2021-02-14_13h41.01.370,empathy_intonation_perc,2020.2.10,MacIntel,60,,,,,,,,,,1,,,,,,,,,,,,,,,,,,,,,,,,,,,,,,,,,,,,,,,,43,canela,,,0,0,0.11755,0,37,37,42,1,REAL,FAKE,,,,,,,,,,,,,,,,,,,,,
,,,,,,,jvc198,Mexican,Southern English,15,no,2021-02-14_13h41.01.370,empathy_intonation_perc,2020.2.10,MacIntel,60,,,,,,,,,,1,,,,,,,,,,,,,,,,,,,,,,,,,,,,,,,,,,,,,,,,45,jilguero,,,0,0,0.01684,0,38,38,44,1,REAL,FAKE,,,,,,,,,,,,,,,,,,,,,
,,,,,,,jvc198,Mexican,Southern English,15,no,2021-02-14_13h41.01.370,empathy_intonation_perc,2020.2.10,MacIntel,60,,,,,,,,,,0,,,,,,,,,,,,,,,,,,,,,,,,,,,,,,,,,,,,,,,,50,flamida,,,0,1,0.28369,0,39,39,49,1,REAL,FAKE,,,,,,,,,,,,,,,,,,,,,
,,,,,,,jvc198,Mexican,Southern English,15,no,2021-02-14_13h41.01.370,empathy_intonation_perc,2020.2.10,MacIntel,60,,,,,,,,,,1,,,,,,,,,,,,,,,,,,,,,,,,,,,,,,,,,,,,,,,,61,seda,,,0,0,0.02367,0,40,40,60,1,REAL,FAKE,,,,,,,,,,,,,,,,,,,,,
,,,,,,,jvc198,Mexican,Southern English,15,no,2021-02-14_13h41.01.370,empathy_intonation_perc,2020.2.10,MacIntel,60,,,,,,,,,,0,,,,,,,,,,,,,,,,,,,,,,,,,,,,,,,,,,,,,,,,10,antar,,,0,1,0.055655,0,41,41,9,1,REAL,FAKE,,,,,,,,,,,,,,,,,,,,,
,,,,,,,jvc198,Mexican,Southern English,15,no,2021-02-14_13h41.01.370,empathy_intonation_perc,2020.2.10,MacIntel,60,,,,,,,,,,0,,,,,,,,,,,,,,,,,,,,,,,,,,,,,,,,,,,,,,,,32,fatacidad,,,0,1,0.065315,0,42,42,31,1,REAL,FAKE,,,,,,,,,,,,,,,,,,,,,
,,,,,,,jvc198,Mexican,Southern English,15,no,2021-02-14_13h41.01.370,empathy_intonation_perc,2020.2.10,MacIntel,60,,,,,,,,,,0,,,,,,,,,,,,,,,,,,,,,,,,,,,,,,,,,,,,,,,,1,terzo,,,0,1,0.09405,0,43,43,0,1,REAL,FAKE,,,,,,,,,,,,,,,,,,,,,
,,,,,,,jvc198,Mexican,Southern English,15,no,2021-02-14_13h41.01.370,empathy_intonation_perc,2020.2.10,MacIntel,60,,,,,,,,,,1,,,,,,,,,,,,,,,,,,,,,,,,,,,,,,,,,,,,,,,,40,alfombra,,,0,0,0.10304,0,44,44,39,1,REAL,FAKE,,,,,,,,,,,,,,,,,,,,,
,,,,,,,jvc198,Mexican,Southern English,15,no,2021-02-14_13h41.01.370,empathy_intonation_perc,2020.2.10,MacIntel,60,,,,,,,,,,0,,,,,,,,,,,,,,,,,,,,,,,,,,,,,,,,,,,,,,,,21,capillo,,,0,1,0.0549,0,45,45,20,1,REAL,FAKE,,,,,,,,,,,,,,,,,,,,,
,,,,,,,jvc198,Mexican,Southern English,15,no,2021-02-14_13h41.01.370,empathy_intonation_perc,2020.2.10,MacIntel,60,,,,,,,,,,1,,,,,,,,,,,,,,,,,,,,,,,,,,,,,,,,,,,,,,,,67,cabello,,,0,0,0.056485,0,46,46,66,1,REAL,FAKE,,,,,,,,,,,,,,,,,,,,,
,,,,,,,jvc198,Mexican,Southern English,15,no,2021-02-14_13h41.01.370,empathy_intonation_perc,2020.2.10,MacIntel,60,,,,,,,,,,0,,,,,,,,,,,,,,,,,,,,,,,,,,,,,,,,,,,,,,,,19,brecedad,,,0,1,0.058215,0,47,47,18,1,REAL,FAKE,,,,,,,,,,,,,,,,,,,,,
,,,,,,,jvc198,Mexican,Southern English,15,no,2021-02-14_13h41.01.370,empathy_intonation_perc,2020.2.10,MacIntel,60,,,,,,,,,,1,,,,,,,,,,,,,,,,,,,,,,,,,,,,,,,,,,,,,,,,83,guante,,,0,0,0.072735,0,48,48,82,1,REAL,FAKE,,,,,,,,,,,,,,,,,,,,,
,,,,,,,jvc198,Mexican,Southern English,15,no,2021-02-14_13h41.01.370,empathy_intonation_perc,2020.2.10,MacIntel,60,,,,,,,,,,0,,,,,,,,,,,,,,,,,,,,,,,,,,,,,,,,,,,,,,,,4,batilln,,,1,0,0.119705,0,49,49,3,1,REAL,FAKE,,,,,,,,,,,,,,,,,,,,,
,,,,,,,jvc198,Mexican,Southern English,15,no,2021-02-14_13h41.01.370,empathy_intonation_perc,2020.2.10,MacIntel,60,,,,,,,,,,1,,,,,,,,,,,,,,,,,,,,,,,,,,,,,,,,,,,,,,,,48,ladrn,,,0,0,0.03517,0,50,50,47,1,REAL,FAKE,,,,,,,,,,,,,,,,,,,,,
,,,,,,,jvc198,Mexican,Southern English,15,no,2021-02-14_13h41.01.370,empathy_intonation_perc,2020.2.10,MacIntel,60,,,,,,,,,,0,,,,,,,,,,,,,,,,,,,,,,,,,,,,,,,,,,,,,,,,29,decar,,,0,1,0.053555,0,51,51,28,1,REAL,FAKE,,,,,,,,,,,,,,,,,,,,,
,,,,,,,jvc198,Mexican,Southern English,15,no,2021-02-14_13h41.01.370,empathy_intonation_perc,2020.2.10,MacIntel,60,,,,,,,,,,0,,,,,,,,,,,,,,,,,,,,,,,,,,,,,,,,,,,,,,,,27,acutacin,,,0,1,0.07655,0,52,52,26,1,REAL,FAKE,,,,,,,,,,,,,,,,,,,,,
,,,,,,,jvc198,Mexican,Southern English,15,no,2021-02-14_13h41.01.370,empathy_intonation_perc,2020.2.10,MacIntel,60,,,,,,,,,,1,,,,,,,,,,,,,,,,,,,,,,,,,,,,,,,,,,,,,,,,2,pellizcar,,,0,0,0.033435,0,53,53,1,1,REAL,FAKE,,,,,,,,,,,,,,,,,,,,,
,,,,,,,jvc198,Mexican,Southern English,15,no,2021-02-14_13h41.01.370,empathy_intonation_perc,2020.2.10,MacIntel,60,,,,,,,,,,0,,,,,,,,,,,,,,,,,,,,,,,,,,,,,,,,,,,,,,,,47,cartinar,,,0,1,0.05068,0,54,54,46,1,REAL,FAKE,,,,,,,,,,,,,,,,,,,,,
,,,,,,,jvc198,Mexican,Southern English,15,no,2021-02-14_13h41.01.370,empathy_intonation_perc,2020.2.10,MacIntel,60,,,,,,,,,,1,,,,,,,,,,,,,,,,,,,,,,,,,,,,,,,,,,,,,,,,11,cenefa,,,0,0,0.067085,0,55,55,10,1,REAL,FAKE,,,,,,,,,,,,,,,,,,,,,
,,,,,,,jvc198,Mexican,Southern English,15,no,2021-02-14_13h41.01.370,empathy_intonation_perc,2020.2.10,MacIntel,60,,,,,,,,,,0,,,,,,,,,,,,,,,,,,,,,,,,,,,,,,,,,,,,,,,,42,cadallo,,,0,1,0.04514,0,56,56,41,1,REAL,FAKE,,,,,,,,,,,,,,,,,,,,,
,,,,,,,jvc198,Mexican,Southern English,15,no,2021-02-14_13h41.01.370,empathy_intonation_perc,2020.2.10,MacIntel,60,,,,,,,,,,1,,,,,,,,,,,,,,,,,,,,,,,,,,,,,,,,,,,,,,,,59,besar,,,0,0,0.055205,0,57,57,58,1,REAL,FAKE,,,,,,,,,,,,,,,,,,,,,
,,,,,,,jvc198,Mexican,Southern English,15,no,2021-02-14_13h41.01.370,empathy_intonation_perc,2020.2.10,MacIntel,60,,,,,,,,,,1,,,,,,,,,,,,,,,,,,,,,,,,,,,,,,,,,,,,,,,,5,zapato,,,0,0,0.000295,0,58,58,4,1,REAL,FAKE,,,,,,,,,,,,,,,,,,,,,
,,,,,,,jvc198,Mexican,Southern English,15,no,2021-02-14_13h41.01.370,empathy_intonation_perc,2020.2.10,MacIntel,60,,,,,,,,,,0,,,,,,,,,,,,,,,,,,,,,,,,,,,,,,,,,,,,,,,,70,temblo,,,0,1,0.037725,0,59,59,69,1,REAL,FAKE,,,,,,,,,,,,,,,,,,,,,
,,,,,,,jvc198,Mexican,Southern English,15,no,2021-02-14_13h41.01.370,empathy_intonation_perc,2020.2.10,MacIntel,60,,,,,,,,,,1,,,,,,,,,,,,,,,,,,,,,,,,,,,,,,,,,,,,,,,,90,clavel,,,0,0,0.000355,0,60,60,89,1,REAL,FAKE,,,,,,,,,,,,,,,,,,,,,
,,,,,,,jvc198,Mexican,Southern English,15,no,2021-02-14_13h41.01.370,empathy_intonation_perc,2020.2.10,MacIntel,60,,,,,,,,,,1,,,,,,,,,,,,,,,,,,,,,,,,,,,,,,,,,,,,,,,,13,helar,,,0,0,0.02295,0,61,61,12,1,REAL,FAKE,,,,,,,,,,,,,,,,,,,,,
,,,,,,,jvc198,Mexican,Southern English,15,no,2021-02-14_13h41.01.370,empathy_intonation_perc,2020.2.10,MacIntel,60,,,,,,,,,,1,,,,,,,,,,,,,,,,,,,,,,,,,,,,,,,,,,,,,,,,36,loro,,,0,0,0.016205,0,62,62,35,1,REAL,FAKE,,,,,,,,,,,,,,,,,,,,,
,,,,,,,jvc198,Mexican,Southern English,15,no,2021-02-14_13h41.01.370,empathy_intonation_perc,2020.2.10,MacIntel,60,,,,,,,,,,0,,,,,,,,,,,,,,,,,,,,,,,,,,,,,,,,,,,,,,,,79,tropaje,,,0,1,0.04923,0,63,63,78,1,REAL,FAKE,,,,,,,,,,,,,,,,,,,,,
,,,,,,,jvc198,Mexican,Southern English,15,no,2021-02-14_13h41.01.370,empathy_intonation_perc,2020.2.10,MacIntel,60,,,,,,,,,,1,,,,,,,,,,,,,,,,,,,,,,,,,,,,,,,,,,,,,,,,65,bizcocho,,,0,0,0.734575,0,64,64,64,1,REAL,FAKE,,,,,,,,,,,,,,,,,,,,,
,,,,,,,jvc198,Mexican,Southern English,15,no,2021-02-14_13h41.01.370,empathy_intonation_perc,2020.2.10,MacIntel,60,,,,,,,,,,0,,,,,,,,,,,,,,,,,,,,,,,,,,,,,,,,,,,,,,,,35,rompido,,,0,1,0.27752,0,65,65,34,1,REAL,FAKE,,,,,,,,,,,,,,,,,,,,,
,,,,,,,jvc198,Mexican,Southern English,15,no,2021-02-14_13h41.01.370,empathy_intonation_perc,2020.2.10,MacIntel,60,,,,,,,,,,1,,,,,,,,,,,,,,,,,,,,,,,,,,,,,,,,,,,,,,,,34,aviso,,,0,0,0.09951,0,66,66,33,1,REAL,FAKE,,,,,,,,,,,,,,,,,,,,,
,,,,,,,jvc198,Mexican,Southern English,15,no,2021-02-14_13h41.01.370,empathy_intonation_perc,2020.2.10,MacIntel,60,,,,,,,,,,1,,,,,,,,,,,,,,,,,,,,,,,,,,,,,,,,,,,,,,,,39,torpe,,,0,0,0.15077,0,67,67,38,1,REAL,FAKE,,,,,,,,,,,,,,,,,,,,,
,,,,,,,jvc198,Mexican,Southern English,15,no,2021-02-14_13h41.01.370,empathy_intonation_perc,2020.2.10,MacIntel,60,,,,,,,,,,1,,,,,,,,,,,,,,,,,,,,,,,,,,,,,,,,,,,,,,,,64,orgulloso,,,0,0,0.155535,0,68,68,63,1,REAL,FAKE,,,,,,,,,,,,,,,,,,,,,
,,,,,,,jvc198,Mexican,Southern English,15,no,2021-02-14_13h41.01.370,empathy_intonation_perc,2020.2.10,MacIntel,60,,,,,,,,,,1,,,,,,,,,,,,,,,,,,,,,,,,,,,,,,,,,,,,,,,,75,yacer,,,0,0,0.12091,0,69,69,74,1,REAL,FAKE,,,,,,,,,,,,,,,,,,,,,
,,,,,,,jvc198,Mexican,Southern English,15,no,2021-02-14_13h41.01.370,empathy_intonation_perc,2020.2.10,MacIntel,60,,,,,,,,,,0,,,,,,,,,,,,,,,,,,,,,,,,,,,,,,,,,,,,,,,,72,pemicin,,,0,1,0.14127,0,70,70,71,1,REAL,FAKE,,,,,,,,,,,,,,,,,,,,,
,,,,,,,jvc198,Mexican,Southern English,15,no,2021-02-14_13h41.01.370,empathy_intonation_perc,2020.2.10,MacIntel,60,,,,,,,,,,1,,,,,,,,,,,,,,,,,,,,,,,,,,,,,,,,,,,,,,,,51,candado,,,0,0,0.081305,0,71,71,50,1,REAL,FAKE,,,,,,,,,,,,,,,,,,,,,
,,,,,,,jvc198,Mexican,Southern English,15,no,2021-02-14_13h41.01.370,empathy_intonation_perc,2020.2.10,MacIntel,60,,,,,,,,,,0,,,,,,,,,,,,,,,,,,,,,,,,,,,,,,,,,,,,,,,,66,hacido,,,0,1,0.085685,0,72,72,65,1,REAL,FAKE,,,,,,,,,,,,,,,,,,,,,
,,,,,,,jvc198,Mexican,Southern English,15,no,2021-02-14_13h41.01.370,empathy_intonation_perc,2020.2.10,MacIntel,60,,,,,,,,,,1,,,,,,,,,,,,,,,,,,,,,,,,,,,,,,,,,,,,,,,,62,flaco,,,0,0,0.13404,0,73,73,61,1,REAL,FAKE,,,,,,,,,,,,,,,,,,,,,
,,,,,,,jvc198,Mexican,Southern English,15,no,2021-02-14_13h41.01.370,empathy_intonation_perc,2020.2.10,MacIntel,60,,,,,,,,,,1,,,,,,,,,,,,,,,,,,,,,,,,,,,,,,,,,,,,,,,,15,regar,,,0,0,0.12368,0,74,74,14,1,REAL,FAKE,,,,,,,,,,,,,,,,,,,,,
,,,,,,,jvc198,Mexican,Southern English,15,no,2021-02-14_13h41.01.370,empathy_intonation_perc,2020.2.10,MacIntel,60,,,,,,,,,,1,,,,,,,,,,,,,,,,,,,,,,,,,,,,,,,,,,,,,,,,73,hervidor,,,0,0,0.116955,0,75,75,72,1,REAL,FAKE,,,,,,,,,,,,,,,,,,,,,
,,,,,,,jvc198,Mexican,Southern English,15,no,2021-02-14_13h41.01.370,empathy_intonation_perc,2020.2.10,MacIntel,60,,,,,,,,,,1,,,,,,,,,,,,,,,,,,,,,,,,,,,,,,,,,,,,,,,,54,fomentar,,,0,0,0.124015,0,76,76,53,1,REAL,FAKE,,,,,,,,,,,,,,,,,,,,,
,,,,,,,jvc198,Mexican,Southern English,15,no,2021-02-14_13h41.01.370,empathy_intonation_perc,2020.2.10,MacIntel,60,,,,,,,,,,1,,,,,,,,,,,,,,,,,,,,,,,,,,,,,,,,,,,,,,,,49,ganar,,,0,0,0.13331,0,77,77,48,1,REAL,FAKE,,,,,,,,,,,,,,,,,,,,,
,,,,,,,jvc198,Mexican,Southern English,15,no,2021-02-14_13h41.01.370,empathy_intonation_perc,2020.2.10,MacIntel,60,,,,,,,,,,1,,,,,,,,,,,,,,,,,,,,,,,,,,,,,,,,,,,,,,,,12,asesinato,,,0,0,0.107925,0,78,78,11,1,REAL,FAKE,,,,,,,,,,,,,,,,,,,,,
,,,,,,,jvc198,Mexican,Southern English,15,no,2021-02-14_13h41.01.370,empathy_intonation_perc,2020.2.10,MacIntel,60,,,,,,,,,,0,,,,,,,,,,,,,,,,,,,,,,,,,,,,,,,,,,,,,,,,58,plaudir,,,0,1,0.178135,0,79,79,57,1,REAL,FAKE,,,,,,,,,,,,,,,,,,,,,
,,,,,,,jvc198,Mexican,Southern English,15,no,2021-02-14_13h41.01.370,empathy_intonation_perc,2020.2.10,MacIntel,60,,,,,,,,,,0,,,,,,,,,,,,,,,,,,,,,,,,,,,,,,,,,,,,,,,,30,alardio,,,0,1,0.11628,0,80,80,29,1,REAL,FAKE,,,,,,,,,,,,,,,,,,,,,
,,,,,,,jvc198,Mexican,Southern English,15,no,2021-02-14_13h41.01.370,empathy_intonation_perc,2020.2.10,MacIntel,60,,,,,,,,,,1,,,,,,,,,,,,,,,,,,,,,,,,,,,,,,,,,,,,,,,,44,cuchara,,,0,0,0.166915,0,81,81,43,1,REAL,FAKE,,,,,,,,,,,,,,,,,,,,,
,,,,,,,jvc198,Mexican,Southern English,15,no,2021-02-14_13h41.01.370,empathy_intonation_perc,2020.2.10,MacIntel,60,,,,,,,,,,1,,,,,,,,,,,,,,,,,,,,,,,,,,,,,,,,,,,,,,,,41,rebuscar,,,0,0,0.111405,0,82,82,40,1,REAL,FAKE,,,,,,,,,,,,,,,,,,,,,
,,,,,,,jvc198,Mexican,Southern English,15,no,2021-02-14_13h41.01.370,empathy_intonation_perc,2020.2.10,MacIntel,60,,,,,,,,,,0,,,,,,,,,,,,,,,,,,,,,,,,,,,,,,,,,,,,,,,,17,floroso,,,0,1,0.161335,0,83,83,16,1,REAL,FAKE,,,,,,,,,,,,,,,,,,,,,
,,,,,,,jvc198,Mexican,Southern English,15,no,2021-02-14_13h41.01.370,empathy_intonation_perc,2020.2.10,MacIntel,60,,,,,,,,,,0,,,,,,,,,,,,,,,,,,,,,,,,,,,,,,,,,,,,,,,,74,cintro,,,0,1,0.107375,0,84,84,73,1,REAL,FAKE,,,,,,,,,,,,,,,,,,,,,
,,,,,,,jvc198,Mexican,Southern English,15,no,2021-02-14_13h41.01.370,empathy_intonation_perc,2020.2.10,MacIntel,60,,,,,,,,,,1,,,,,,,,,,,,,,,,,,,,,,,,,,,,,,,,,,,,,,,,69,engatusar,,,0,0,0.115895,0,85,85,68,1,REAL,FAKE,,,,,,,,,,,,,,,,,,,,,
,,,,,,,jvc198,Mexican,Southern English,15,no,2021-02-14_13h41.01.370,empathy_intonation_perc,2020.2.10,MacIntel,60,,,,,,,,,,1,,,,,,,,,,,,,,,,,,,,,,,,,,,,,,,,,,,,,,,,24,ltigo,,,0,0,0.100325,0,86,86,23,1,REAL,FAKE,,,,,,,,,,,,,,,,,,,,,
,,,,,,,jvc198,Mexican,Southern English,15,no,2021-02-14_13h41.01.370,empathy_intonation_perc,2020.2.10,MacIntel,60,,,,,,,,,,1,,,,,,,,,,,,,,,,,,,,,,,,,,,,,,,,,,,,,,,,57,tacao,,,0,0,0.05275,0,87,87,56,1,REAL,FAKE,,,,,,,,,,,,,,,,,,,,,
,,,,,,,jvc198,Mexican,Southern English,15,no,2021-02-14_13h41.01.370,empathy_intonation_perc,2020.2.10,MacIntel,60,,,,,,,,,,1,,,,,,,,,,,,,,,,,,,,,,,,,,,,,,,,,,,,,,,,56,musgo,,,0,0,0.15766,0,88,88,55,1,REAL,FAKE,,,,,,,,,,,,,,,,,,,,,
,,,,,,,jvc198,Mexican,Southern English,15,no,2021-02-14_13h41.01.370,empathy_intonation_perc,2020.2.10,MacIntel,60,,,,,,,,,,0,,,,,,,,,,,,,,,,,,,,,,,,,,,,,,,,,,,,,,,,18,arsa,,,0,1,0.300085,0,89,89,17,1,REAL,FAKE,,,,,,,,,,,,,,,,,,,,,
,,,,,,,jvc198,Mexican,Southern English,15,no,2021-02-14_13h41.01.370,empathy_intonation_perc,2020.2.10,MacIntel,60,,,,,,,,,,,,,,,,,,,,,,,,,,,,,,,,,,,,,,,,,,,,,,,,,,,,,,,,,,,,,,,,4,1,4.25089,1,1,0,0,0,0,1,,,,,,,,,,,
,,,,,,,jvc198,Mexican,Southern English,15,no,2021-02-14_13h41.01.370,empathy_intonation_perc,2020.2.10,MacIntel,60,,,,,,,,,,,,,,,,,,,,1,,,,,,,,,,,,,,,,,,,,,,,,,,,,,,,,,,,,,,,,,,,,,,,,,,,,,,3,0,0,0,0,1,I can easily tell if someone else wants to enter a conversation.,1,0,1,0
,,,,,,,jvc198,Mexican,Southern English,15,no,2021-02-14_13h41.01.370,empathy_intonation_perc,2020.2.10,MacIntel,60,,,,,,,,,,,,,,,,,,,,2,,,,,,,,,,,,,,,,,,,,,,,,,,,,,,,,,,,,,,,,,,,,,,,,,,,,,,4,0,1,1,1,1,I prefer animals to humans.,0,1,0,0
,,,,,,,jvc198,Mexican,Southern English,15,no,2021-02-14_13h41.01.370,empathy_intonation_perc,2020.2.10,MacIntel,60,,,,,,,,,,,,,,,,,,,,3,,,,,,,,,,,,,,,,,,,,,,,,,,,,,,,,,,,,,,,,,,,,,,,,,,,,,,2,0,2,2,2,1,I try to keep up with the current trends and fashions.,0,1,0,0
,,,,,,,jvc198,Mexican,Southern English,15,no,2021-02-14_13h41.01.370,empathy_intonation_perc,2020.2.10,MacIntel,60,,,,,,,,,,,,,,,,,,,,4,,,,,,,,,,,,,,,,,,,,,,,,,,,,,,,,,,,,,,,,,,,,,,,,,,,,,,4,0,3,3,3,1,"I find it difficult to explain to others things that I understand easily, 
  when they dont understand it first time.",1,0,0,1
,,,,,,,jvc198,Mexican,Southern English,15,no,2021-02-14_13h41.01.370,empathy_intonation_perc,2020.2.10,MacIntel,60,,,,,,,,,,,,,,,,,,,,5,,,,,,,,,,,,,,,,,,,,,,,,,,,,,,,,,,,,,,,,,,,,,,,,,,,,,,2,0,4,4,4,1,I dream most nights.,0,1,0,0
,,,,,,,jvc198,Mexican,Southern English,15,no,2021-02-14_13h41.01.370,empathy_intonation_perc,2020.2.10,MacIntel,60,,,,,,,,,,,,,,,,,,,,6,,,,,,,,,,,,,,,,,,,,,,,,,,,,,,,,,,,,,,,,,,,,,,,,,,,,,,5,0,5,5,5,1,I really enjoy caring for other people.,1,0,1,0
,,,,,,,jvc198,Mexican,Southern English,15,no,2021-02-14_13h41.01.370,empathy_intonation_perc,2020.2.10,MacIntel,60,,,,,,,,,,,,,,,,,,,,7,,,,,,,,,,,,,,,,,,,,,,,,,,,,,,,,,,,,,,,,,,,,,,,,,,,,,,2,0,6,6,6,1,I try to solve my own problems rather than discussing them with others.,0,1,0,0
,,,,,,,jvc198,Mexican,Southern English,15,no,2021-02-14_13h41.01.370,empathy_intonation_perc,2020.2.10,MacIntel,60,,,,,,,,,,,,,,,,,,,,8,,,,,,,,,,,,,,,,,,,,,,,,,,,,,,,,,,,,,,,,,,,,,,,,,,,,,,3,0,7,7,7,1,I find it hard to know what to do in a social situation.,1,0,0,1
,,,,,,,jvc198,Mexican,Southern English,15,no,2021-02-14_13h41.01.370,empathy_intonation_perc,2020.2.10,MacIntel,60,,,,,,,,,,,,,,,,,,,,9,,,,,,,,,,,,,,,,,,,,,,,,,,,,,,,,,,,,,,,,,,,,,,,,,,,,,,1,0,8,8,8,1,I am at my best first thing in the morning.,0,1,0,0
,,,,,,,jvc198,Mexican,Southern English,15,no,2021-02-14_13h41.01.370,empathy_intonation_perc,2020.2.10,MacIntel,60,,,,,,,,,,,,,,,,,,,,10,,,,,,,,,,,,,,,,,,,,,,,,,,,,,,,,,,,,,,,,,,,,,,,,,,,,,,2,0,9,9,9,1,"People often tell me that I went too far in driving my point home in a 
  discussion.",1,0,0,1
,,,,,,,jvc198,Mexican,Southern English,15,no,2021-02-14_13h41.01.370,empathy_intonation_perc,2020.2.10,MacIntel,60,,,,,,,,,,,,,,,,,,,,11,,,,,,,,,,,,,,,,,,,,,,,,,,,,,,,,,,,,,,,,,,,,,,,,,,,,,,3,0,10,10,10,1,It doesnt bother me too much if I am late meeting a friend.,1,0,0,1
,,,,,,,jvc198,Mexican,Southern English,15,no,2021-02-14_13h41.01.370,empathy_intonation_perc,2020.2.10,MacIntel,60,,,,,,,,,,,,,,,,,,,,12,,,,,,,,,,,,,,,,,,,,,,,,,,,,,,,,,,,,,,,,,,,,,,,,,,,,,,4,0,11,11,11,1,"Friendships and relationships are just too difficult, so I tend not to 
  bother with them.",1,0,0,1
,,,,,,,jvc198,Mexican,Southern English,15,no,2021-02-14_13h41.01.370,empathy_intonation_perc,2020.2.10,MacIntel,60,,,,,,,,,,,,,,,,,,,,13,,,,,,,,,,,,,,,,,,,,,,,,,,,,,,,,,,,,,,,,,,,,,,,,,,,,,,4,0,12,12,12,1,"I would never break a law, no matter how minor.",0,1,0,0
,,,,,,,jvc198,Mexican,Southern English,15,no,2021-02-14_13h41.01.370,empathy_intonation_perc,2020.2.10,MacIntel,60,,,,,,,,,,,,,,,,,,,,14,,,,,,,,,,,,,,,,,,,,,,,,,,,,,,,,,,,,,,,,,,,,,,,,,,,,,,4,0,13,13,13,1,I often find it difficult to judge if something is rude or polite.,1,0,0,1
,,,,,,,jvc198,Mexican,Southern English,15,no,2021-02-14_13h41.01.370,empathy_intonation_perc,2020.2.10,MacIntel,60,,,,,,,,,,,,,,,,,,,,15,,,,,,,,,,,,,,,,,,,,,,,,,,,,,,,,,,,,,,,,,,,,,,,,,,,,,,4,0,14,14,14,1,"In a conversation, I tend to focus on my own thoughts rather than on what 
  my listener might be thinking.",1,0,0,1
,,,,,,,jvc198,Mexican,Southern English,15,no,2021-02-14_13h41.01.370,empathy_intonation_perc,2020.2.10,MacIntel,60,,,,,,,,,,,,,,,,,,,,16,,,,,,,,,,,,,,,,,,,,,,,,,,,,,,,,,,,,,,,,,,,,,,,,,,,,,,4,0,15,15,15,1,I prefer practical jokes to verbal humor.,0,1,0,0
,,,,,,,jvc198,Mexican,Southern English,15,no,2021-02-14_13h41.01.370,empathy_intonation_perc,2020.2.10,MacIntel,60,,,,,,,,,,,,,,,,,,,,17,,,,,,,,,,,,,,,,,,,,,,,,,,,,,,,,,,,,,,,,,,,,,,,,,,,,,,4,0,16,16,16,1,I live life for today rather than the future.,0,1,0,0
,,,,,,,jvc198,Mexican,Southern English,15,no,2021-02-14_13h41.01.370,empathy_intonation_perc,2020.2.10,MacIntel,60,,,,,,,,,,,,,,,,,,,,18,,,,,,,,,,,,,,,,,,,,,,,,,,,,,,,,,,,,,,,,,,,,,,,,,,,,,,4,0,17,17,17,1,"When I was a child, I enjoyed cutting up worms to see what would happen.",1,0,0,1
,,,,,,,jvc198,Mexican,Southern English,15,no,2021-02-14_13h41.01.370,empathy_intonation_perc,2020.2.10,MacIntel,60,,,,,,,,,,,,,,,,,,,,19,,,,,,,,,,,,,,,,,,,,,,,,,,,,,,,,,,,,,,,,,,,,,,,,,,,,,,4,0,18,18,18,1,I can pick up quickly if someone says one thing but means another.,1,0,1,0
,,,,,,,jvc198,Mexican,Southern English,15,no,2021-02-14_13h41.01.370,empathy_intonation_perc,2020.2.10,MacIntel,60,,,,,,,,,,,,,,,,,,,,20,,,,,,,,,,,,,,,,,,,,,,,,,,,,,,,,,,,,,,,,,,,,,,,,,,,,,,4,0,19,19,19,1,I tend to have very strong opinions about morality.,0,1,0,0
,,,,,,,jvc198,Mexican,Southern English,15,no,2021-02-14_13h41.01.370,empathy_intonation_perc,2020.2.10,MacIntel,60,,,,,,,,,,,,,,,,,,,,21,,,,,,,,,,,,,,,,,,,,,,,,,,,,,,,,,,,,,,,,,,,,,,,,,,,,,,4,0,20,20,20,1,It is hard for me to see why some things upset people so much.,1,0,0,1
,,,,,,,jvc198,Mexican,Southern English,15,no,2021-02-14_13h41.01.370,empathy_intonation_perc,2020.2.10,MacIntel,60,,,,,,,,,,,,,,,,,,,,22,,,,,,,,,,,,,,,,,,,,,,,,,,,,,,,,,,,,,,,,,,,,,,,,,,,,,,4,0,21,21,21,1,I find it easy to put myself in somebody elses shoes.,1,0,1,0
,,,,,,,jvc198,Mexican,Southern English,15,no,2021-02-14_13h41.01.370,empathy_intonation_perc,2020.2.10,MacIntel,60,,,,,,,,,,,,,,,,,,,,23,,,,,,,,,,,,,,,,,,,,,,,,,,,,,,,,,,,,,,,,,,,,,,,,,,,,,,4,0,22,22,22,1,"I think that good manners are the most important thing a parent can teach 
  their child.",0,1,0,0
,,,,,,,jvc198,Mexican,Southern English,15,no,2021-02-14_13h41.01.370,empathy_intonation_perc,2020.2.10,MacIntel,60,,,,,,,,,,,,,,,,,,,,24,,,,,,,,,,,,,,,,,,,,,,,,,,,,,,,,,,,,,,,,,,,,,,,,,,,,,,4,0,23,23,23,1,I like to do things on the spur of the moment.,0,1,0,0
,,,,,,,jvc198,Mexican,Southern English,15,no,2021-02-14_13h41.01.370,empathy_intonation_perc,2020.2.10,MacIntel,60,,,,,,,,,,,,,,,,,,,,25,,,,,,,,,,,,,,,,,,,,,,,,,,,,,,,,,,,,,,,,,,,,,,,,,,,,,,4,0,24,24,24,1,I am good at predicting how someone will feel.,1,0,1,0
,,,,,,,jvc198,Mexican,Southern English,15,no,2021-02-14_13h41.01.370,empathy_intonation_perc,2020.2.10,MacIntel,60,,,,,,,,,,,,,,,,,,,,26,,,,,,,,,,,,,,,,,,,,,,,,,,,,,,,,,,,,,,,,,,,,,,,,,,,,,,4,0,25,25,25,1,"I am quick to spot when someone in a group is feeling awkward or 
  uncomfortable.",1,0,1,0
,,,,,,,jvc198,Mexican,Southern English,15,no,2021-02-14_13h41.01.370,empathy_intonation_perc,2020.2.10,MacIntel,60,,,,,,,,,,,,,,,,,,,,27,,,,,,,,,,,,,,,,,,,,,,,,,,,,,,,,,,,,,,,,,,,,,,,,,,,,,,4,0,26,26,26,1,"If I say something that someone else is offended by, I think that thats 
  their problem, not mine.",1,0,0,1
,,,,,,,jvc198,Mexican,Southern English,15,no,2021-02-14_13h41.01.370,empathy_intonation_perc,2020.2.10,MacIntel,60,,,,,,,,,,,,,,,,,,,,28,,,,,,,,,,,,,,,,,,,,,,,,,,,,,,,,,,,,,,,,,,,,,,,,,,,,,,4,0,27,27,27,1,"If anyone asked me if I liked their haircut, I would reply truthfully, even 
  if I didnt like it.",1,0,0,1
,,,,,,,jvc198,Mexican,Southern English,15,no,2021-02-14_13h41.01.370,empathy_intonation_perc,2020.2.10,MacIntel,60,,,,,,,,,,,,,,,,,,,,29,,,,,,,,,,,,,,,,,,,,,,,,,,,,,,,,,,,,,,,,,,,,,,,,,,,,,,4,0,28,28,28,1,I cant always see why someone should have felt offended by a remark.,1,0,0,1
,,,,,,,jvc198,Mexican,Southern English,15,no,2021-02-14_13h41.01.370,empathy_intonation_perc,2020.2.10,MacIntel,60,,,,,,,,,,,,,,,,,,,,30,,,,,,,,,,,,,,,,,,,,,,,,,,,,,,,,,,,,,,,,,,,,,,,,,,,,,,5,0,29,29,29,1,People often tell me that I am very unpredictable.,0,1,0,0
,,,,,,,jvc198,Mexican,Southern English,15,no,2021-02-14_13h41.01.370,empathy_intonation_perc,2020.2.10,MacIntel,60,,,,,,,,,,,,,,,,,,,,31,,,,,,,,,,,,,,,,,,,,,,,,,,,,,,,,,,,,,,,,,,,,,,,,,,,,,,3,0,30,30,30,1,I enjoy being the center of attention at any social gathering.,0,1,0,0
,,,,,,,jvc198,Mexican,Southern English,15,no,2021-02-14_13h41.01.370,empathy_intonation_perc,2020.2.10,MacIntel,60,,,,,,,,,,,,,,,,,,,,32,,,,,,,,,,,,,,,,,,,,,,,,,,,,,,,,,,,,,,,,,,,,,,,,,,,,,,2,0,31,31,31,1,Seeing people cry doesnt really upset me.,1,0,0,1
,,,,,,,jvc198,Mexican,Southern English,15,no,2021-02-14_13h41.01.370,empathy_intonation_perc,2020.2.10,MacIntel,60,,,,,,,,,,,,,,,,,,,,33,,,,,,,,,,,,,,,,,,,,,,,,,,,,,,,,,,,,,,,,,,,,,,,,,,,,,,4,0,32,32,32,1,I enjoy having discussions about politics.,0,1,0,0
,,,,,,,jvc198,Mexican,Southern English,15,no,2021-02-14_13h41.01.370,empathy_intonation_perc,2020.2.10,MacIntel,60,,,,,,,,,,,,,,,,,,,,34,,,,,,,,,,,,,,,,,,,,,,,,,,,,,,,,,,,,,,,,,,,,,,,,,,,,,,5,0,33,33,33,1,"I am very blunt, which some people take to be rudeness, even though this is 
  unintentional.",1,0,0,1
,,,,,,,jvc198,Mexican,Southern English,15,no,2021-02-14_13h41.01.370,empathy_intonation_perc,2020.2.10,MacIntel,60,,,,,,,,,,,,,,,,,,,,35,,,,,,,,,,,,,,,,,,,,,,,,,,,,,,,,,,,,,,,,,,,,,,,,,,,,,,2,0,34,34,34,1,I dont tend to find social situations confusing.,1,0,1,0
,,,,,,,jvc198,Mexican,Southern English,15,no,2021-02-14_13h41.01.370,empathy_intonation_perc,2020.2.10,MacIntel,60,,,,,,,,,,,,,,,,,,,,36,,,,,,,,,,,,,,,,,,,,,,,,,,,,,,,,,,,,,,,,,,,,,,,,,,,,,,3,0,35,35,35,1,"Other people tell me I am good at understanding how they are feeling and 
  what they are thinking.",1,0,1,0
,,,,,,,jvc198,Mexican,Southern English,15,no,2021-02-14_13h41.01.370,empathy_intonation_perc,2020.2.10,MacIntel,60,,,,,,,,,,,,,,,,,,,,37,,,,,,,,,,,,,,,,,,,,,,,,,,,,,,,,,,,,,,,,,,,,,,,,,,,,,,2,0,36,36,36,1,"When I talk to people, I tend to talk about their experiences rather than 
  my own.",1,0,1,0
,,,,,,,jvc198,Mexican,Southern English,15,no,2021-02-14_13h41.01.370,empathy_intonation_perc,2020.2.10,MacIntel,60,,,,,,,,,,,,,,,,,,,,38,,,,,,,,,,,,,,,,,,,,,,,,,,,,,,,,,,,,,,,,,,,,,,,,,,,,,,2,0,37,37,37,1,It upsets me to see an animal in pain.,1,0,1,0
,,,,,,,jvc198,Mexican,Southern English,15,no,2021-02-14_13h41.01.370,empathy_intonation_perc,2020.2.10,MacIntel,60,,,,,,,,,,,,,,,,,,,,39,,,,,,,,,,,,,,,,,,,,,,,,,,,,,,,,,,,,,,,,,,,,,,,,,,,,,,1,0,38,38,38,1,I am able to make decisions without being influenced by peoples feelings.,1,0,0,1
,,,,,,,jvc198,Mexican,Southern English,15,no,2021-02-14_13h41.01.370,empathy_intonation_perc,2020.2.10,MacIntel,60,,,,,,,,,,,,,,,,,,,,40,,,,,,,,,,,,,,,,,,,,,,,,,,,,,,,,,,,,,,,,,,,,,,,,,,,,,,4,0,39,39,39,1,I cant relax until I have done everything I had planned to do that day.,0,1,0,0
,,,,,,,jvc198,Mexican,Southern English,15,no,2021-02-14_13h41.01.370,empathy_intonation_perc,2020.2.10,MacIntel,60,,,,,,,,,,,,,,,,,,,,41,,,,,,,,,,,,,,,,,,,,,,,,,,,,,,,,,,,,,,,,,,,,,,,,,,,,,,4,0,40,40,40,1,"I can easily tell if someone else is interested or bored with what I am 
  saying.",1,0,1,0
,,,,,,,jvc198,Mexican,Southern English,15,no,2021-02-14_13h41.01.370,empathy_intonation_perc,2020.2.10,MacIntel,60,,,,,,,,,,,,,,,,,,,,42,,,,,,,,,,,,,,,,,,,,,,,,,,,,,,,,,,,,,,,,,,,,,,,,,,,,,,3,0,41,41,41,1,I get upset if I see people suffering on news programmes.,1,0,1,0
,,,,,,,jvc198,Mexican,Southern English,15,no,2021-02-14_13h41.01.370,empathy_intonation_perc,2020.2.10,MacIntel,60,,,,,,,,,,,,,,,,,,,,43,,,,,,,,,,,,,,,,,,,,,,,,,,,,,,,,,,,,,,,,,,,,,,,,,,,,,,4,0,42,42,42,1,"Friends usually talk to me about their problems as they say that I am very 
  understanding.",1,0,1,0
,,,,,,,jvc198,Mexican,Southern English,15,no,2021-02-14_13h41.01.370,empathy_intonation_perc,2020.2.10,MacIntel,60,,,,,,,,,,,,,,,,,,,,44,,,,,,,,,,,,,,,,,,,,,,,,,,,,,,,,,,,,,,,,,,,,,,,,,,,,,,4,0,43,43,43,1,"I can sense if I am intruding, even if the other person doesnt tell me.",1,0,1,0
,,,,,,,jvc198,Mexican,Southern English,15,no,2021-02-14_13h41.01.370,empathy_intonation_perc,2020.2.10,MacIntel,60,,,,,,,,,,,,,,,,,,,,45,,,,,,,,,,,,,,,,,,,,,,,,,,,,,,,,,,,,,,,,,,,,,,,,,,,,,,4,0,44,44,44,1,"I often start new hobbies but quickly become bored with them and move on to 
  something else.",0,1,0,0
,,,,,,,jvc198,Mexican,Southern English,15,no,2021-02-14_13h41.01.370,empathy_intonation_perc,2020.2.10,MacIntel,60,,,,,,,,,,,,,,,,,,,,46,,,,,,,,,,,,,,,,,,,,,,,,,,,,,,,,,,,,,,,,,,,,,,,,,,,,,,4,0,45,45,45,1,People sometimes tell me that I have gone too far with teasing.,1,0,0,1
,,,,,,,jvc198,Mexican,Southern English,15,no,2021-02-14_13h41.01.370,empathy_intonation_perc,2020.2.10,MacIntel,60,,,,,,,,,,,,,,,,,,,,47,,,,,,,,,,,,,,,,,,,,,,,,,,,,,,,,,,,,,,,,,,,,,,,,,,,,,,4,0,46,46,46,1,I would be too nervous to go on a big rollercoaster.,0,1,0,0
,,,,,,,jvc198,Mexican,Southern English,15,no,2021-02-14_13h41.01.370,empathy_intonation_perc,2020.2.10,MacIntel,60,,,,,,,,,,,,,,,,,,,,48,,,,,,,,,,,,,,,,,,,,,,,,,,,,,,,,,,,,,,,,,,,,,,,,,,,,,,4,0,47,47,47,1,"Other people, often say that I am insensitive, though I dont always see 
  why.",1,0,0,1
,,,,,,,jvc198,Mexican,Southern English,15,no,2021-02-14_13h41.01.370,empathy_intonation_perc,2020.2.10,MacIntel,60,,,,,,,,,,,,,,,,,,,,49,,,,,,,,,,,,,,,,,,,,,,,,,,,,,,,,,,,,,,,,,,,,,,,,,,,,,,4,0,48,48,48,1,"If I see a stranger in a group, I think that it is up to them to make an 
  effort to join in.",1,0,0,1
,,,,,,,jvc198,Mexican,Southern English,15,no,2021-02-14_13h41.01.370,empathy_intonation_perc,2020.2.10,MacIntel,60,,,,,,,,,,,,,,,,,,,,50,,,,,,,,,,,,,,,,,,,,,,,,,,,,,,,,,,,,,,,,,,,,,,,,,,,,,,4,0,49,49,49,1,I usually stay emotionally detached when watching a film.,1,0,0,1
,,,,,,,jvc198,Mexican,Southern English,15,no,2021-02-14_13h41.01.370,empathy_intonation_perc,2020.2.10,MacIntel,60,,,,,,,,,,,,,,,,,,,,51,,,,,,,,,,,,,,,,,,,,,,,,,,,,,,,,,,,,,,,,,,,,,,,,,,,,,,3,0,50,50,50,1,"I like to be very organized in day-to-day life and often make lists of the 
  chores I have to do.",0,1,0,0
