participant,group,eng_variety,spn_variety,have_ln,aoa,check_pass,check_fails,item,speaker_variety,condition,sentence_type,sentence,trial_n,correct_response,response,is_correct,rt_raw,sentence_dur,rt_adj
558aab19fdf99b65685f0142,learner,Midwest,I am not familiar with Spanish,no,NA,1,0,andalusian_mismatch_interrogative-partial-wh_Por-que-oia-el-rio.wav,castilian,mismatch,interrogative-partial-wh,Por que oia el rio,0,1,1,1,1.924375,1.36,0.5643749999999998
558aab19fdf99b65685f0142,learner,Midwest,I am not familiar with Spanish,no,NA,1,0,andalusian_match_declarative-narrow-focus_Emilio-ama-la-marcha.wav,andalusian,match,declarative-narrow-focus,Emilio ama la marcha,1,0,0,1,1.88941,1.48,0.40941000000000005
558aab19fdf99b65685f0142,learner,Midwest,I am not familiar with Spanish,no,NA,1,0,andalusian_match_declarative-broad-focus_David-leia-el-libro.wav,cuban,match,declarative-broad-focus,David leia el libro,2,0,0,1,1.74388,1.41,0.3338800000000002
558aab19fdf99b65685f0142,learner,Midwest,I am not familiar with Spanish,no,NA,1,0,andalusian_mismatch_declarative-narrow-focus_El-nino-oye-el-rio.wav,peruvian,mismatch,declarative-narrow-focus,El nino oye el rio,3,0,1,0,3.530835,1.57,1.960835
558aab19fdf99b65685f0142,learner,Midwest,I am not familiar with Spanish,no,NA,1,0,andalusian_mismatch_interrogative-total-yn_La-nina-lava-el-plato.wav,peruvian,mismatch,interrogative-total-yn,La nina lava el plato,4,1,1,1,2.10788,1.43,0.6778800000000003
558aab19fdf99b65685f0142,learner,Midwest,I am not familiar with Spanish,no,NA,1,0,andalusian_mismatch_interrogative-total-yn_Mi-novio-viene-del-lago.wav,chilean,mismatch,interrogative-total-yn,Mi novio viene del lago,5,1,1,1,2.475525,1.29,1.1855250000000002
558aab19fdf99b65685f0142,learner,Midwest,I am not familiar with Spanish,no,NA,1,0,andalusian_match_interrogative-total-yn_Marta-abre-el-regalo.wav,cuban,match,interrogative-total-yn,Marta abre el regalo,6,1,0,0,1.590045,1.25,0.34004499999999993
558aab19fdf99b65685f0142,learner,Midwest,I am not familiar with Spanish,no,NA,1,0,andalusian_mismatch_declarative-narrow-focus_El-bebe-comia-muy-bien.wav,peruvian,mismatch,declarative-narrow-focus,El bebe comia muy bien,7,0,0,1,1.980685,1.67,0.3106850000000001
558aab19fdf99b65685f0142,learner,Midwest,I am not familiar with Spanish,no,NA,1,0,andalusian_match_interrogative-partial-wh_Por-que-hablaba-del-agua.wav,castilian,match,interrogative-partial-wh,Por que hablaba del agua,8,1,1,1,1.734055,1.46,0.27405499999999994
558aab19fdf99b65685f0142,learner,Midwest,I am not familiar with Spanish,no,NA,1,0,andalusian_mismatch_interrogative-total-yn_El-nino-oye-el-rio.wav,castilian,mismatch,interrogative-total-yn,El nino oye el rio,9,1,1,1,2.19867,1.46,0.7386699999999999
558aab19fdf99b65685f0142,learner,Midwest,I am not familiar with Spanish,no,NA,1,0,andalusian_match_declarative-broad-focus_Manuela-vende-el-carro.wav,mexican,match,declarative-broad-focus,Manuela vende el carro,10,0,0,1,1.46901,1.15,0.31901
558aab19fdf99b65685f0142,learner,Midwest,I am not familiar with Spanish,no,NA,1,0,andalusian_mismatch_declarative-narrow-focus_Mi-novio-viene-del-lago.wav,chilean,mismatch,declarative-narrow-focus,Mi novio viene del lago,11,0,0,1,1.690205,1.37,0.32020499999999985
558aab19fdf99b65685f0142,learner,Midwest,I am not familiar with Spanish,no,NA,1,0,andalusian_match_declarative-broad-focus_Marta-abre-el-regalo.wav,castilian,match,declarative-broad-focus,Marta abre el regalo,12,0,0,1,1.82169,1.4,0.4216900000000001
558aab19fdf99b65685f0142,learner,Midwest,I am not familiar with Spanish,no,NA,1,0,andalusian_mismatch_interrogative-partial-wh_Cuando-comia-la-fruta.wav,castilian,mismatch,interrogative-partial-wh,Cuando comia la fruta,13,1,1,1,1.657415,1.4,0.25741500000000017
558aab19fdf99b65685f0142,learner,Midwest,I am not familiar with Spanish,no,NA,1,0,andalusian_mismatch_declarative-broad-focus_El-bebe-comia-muy-bien.wav,castilian,mismatch,declarative-broad-focus,El bebe comia muy bien,14,0,0,1,1.958155,1.6,0.358155
558aab19fdf99b65685f0142,learner,Midwest,I am not familiar with Spanish,no,NA,1,0,andalusian_match_interrogative-total-yn_Maria-bebe-el-vino.wav,chilean,match,interrogative-total-yn,Maria bebe el vino,15,1,0,0,2.048865,1.2,0.8488650000000002
558aab19fdf99b65685f0142,learner,Midwest,I am not familiar with Spanish,no,NA,1,0,andalusian_mismatch_declarative-narrow-focus_El-hombre-mira-la-luna.wav,castilian,mismatch,declarative-narrow-focus,El hombre mira la luna,16,0,0,1,1.92387,1.28,0.6438699999999999
558aab19fdf99b65685f0142,learner,Midwest,I am not familiar with Spanish,no,NA,1,0,andalusian_mismatch_declarative-narrow-focus_Mi-tia-odia-la-lluvia.wav,peruvian,mismatch,declarative-narrow-focus,Mi tia odia la lluvia,17,0,0,1,1.831205,1.61,0.22120499999999987
558aab19fdf99b65685f0142,learner,Midwest,I am not familiar with Spanish,no,NA,1,0,andalusian_match_declarative-narrow-focus_David-leia-el-libro.wav,peruvian,match,declarative-narrow-focus,David leia el libro,18,0,0,1,1.763415,1.35,0.41341499999999987
558aab19fdf99b65685f0142,learner,Midwest,I am not familiar with Spanish,no,NA,1,0,andalusian_mismatch_interrogative-partial-wh_Por-que-odiaba-la-lluvia.wav,chilean,mismatch,interrogative-partial-wh,Por que odiaba la lluvia,19,1,1,1,1.857155,1.47,0.3871549999999999
558aab19fdf99b65685f0142,learner,Midwest,I am not familiar with Spanish,no,NA,1,0,andalusian_mismatch_interrogative-total-yn_Mi-tia-odia-la-lluvia.wav,mexican,mismatch,interrogative-total-yn,Mi tia odia la lluvia,20,1,1,1,1.71088,1.19,0.52088
558aab19fdf99b65685f0142,learner,Midwest,I am not familiar with Spanish,no,NA,1,0,andalusian_mismatch_declarative-narrow-focus_La-nina-lava-el-plato.wav,argentine,mismatch,declarative-narrow-focus,La nina lava el plato,21,0,0,1,1.579005,1.26,0.319005
558aab19fdf99b65685f0142,learner,Midwest,I am not familiar with Spanish,no,NA,1,0,andalusian_mismatch_interrogative-partial-wh_Cuando-lavaba-el-plato.wav,castilian,mismatch,interrogative-partial-wh,Cuando lavaba el plato,22,1,1,1,1.48186,1.33,0.15185999999999988
558aab19fdf99b65685f0142,learner,Midwest,I am not familiar with Spanish,no,NA,1,0,andalusian_match_declarative-broad-focus_Daniel-iba-a-Bolivia.wav,peruvian,match,declarative-broad-focus,Daniel iba a Bolivia,23,0,0,1,1.60714,1.44,0.16714000000000007
558aab19fdf99b65685f0142,learner,Midwest,I am not familiar with Spanish,no,NA,1,0,andalusian_mismatch_interrogative-partial-wh_Por-que-venia-del-lago.wav,chilean,mismatch,interrogative-partial-wh,Por que venia del lago,24,1,1,1,1.52402,1.33,0.19401999999999986
558aab19fdf99b65685f0142,learner,Midwest,I am not familiar with Spanish,no,NA,1,0,andalusian_match_interrogative-total-yn_Daniel-iba-a-Bolivia.wav,argentine,match,interrogative-total-yn,Daniel iba a Bolivia,25,1,0,0,1.62944,1.41,0.21944000000000008
558aab19fdf99b65685f0142,learner,Midwest,I am not familiar with Spanish,no,NA,1,0,andalusian_match_interrogative-partial-wh_Cuando-leia-el-libro.wav,argentine,match,interrogative-partial-wh,Cuando leia el libro,26,1,1,1,1.584075,1.09,0.4940749999999998
558aab19fdf99b65685f0142,learner,Midwest,I am not familiar with Spanish,no,NA,1,0,andalusian_match_declarative-narrow-focus_Maria-bebe-el-vino.wav,chilean,match,declarative-narrow-focus,Maria bebe el vino,27,0,0,1,1.275555,0.98,0.295555
558aab19fdf99b65685f0142,learner,Midwest,I am not familiar with Spanish,no,NA,1,0,andalusian_mismatch_interrogative-total-yn_El-bebe-comia-muy-bien.wav,andalusian,mismatch,interrogative-total-yn,El bebe comia muy bien,28,1,0,0,2.211515,1.33,0.8815149999999998
558aab19fdf99b65685f0142,learner,Midwest,I am not familiar with Spanish,no,NA,1,0,andalusian_mismatch_interrogative-partial-wh_Por-que-desayuna-muy-bien.wav,argentine,mismatch,interrogative-partial-wh,Por que desayuna muy bien,29,1,1,1,1.54946,1.34,0.20945999999999998
558aab19fdf99b65685f0142,learner,Midwest,I am not familiar with Spanish,no,NA,1,0,andalusian_mismatch_declarative-broad-focus_Mi-novio-viene-del-lago.wav,argentine,mismatch,declarative-broad-focus,Mi novio viene del lago,30,0,0,1,1.884995,1.68,0.20499500000000004
558aab19fdf99b65685f0142,learner,Midwest,I am not familiar with Spanish,no,NA,1,0,andalusian_match_interrogative-partial-wh_Por-que-ama-la-navidad.wav,cuban,match,interrogative-partial-wh,Por que ama la navidad,31,1,0,0,2.008655,1.17,0.8386550000000002
558aab19fdf99b65685f0142,learner,Midwest,I am not familiar with Spanish,no,NA,1,0,andalusian_mismatch_declarative-narrow-focus_Mi-madre-come-la-fruta.wav,peruvian,mismatch,declarative-narrow-focus,Mi madre come la fruta,32,0,0,1,1.80779,1.63,0.17779000000000011
558aab19fdf99b65685f0142,learner,Midwest,I am not familiar with Spanish,no,NA,1,0,andalusian_mismatch_declarative-broad-focus_Mi-tia-odia-la-lluvia.wav,puertorican,mismatch,declarative-broad-focus,Mi tia odia la lluvia,33,0,0,1,1.65619,1.23,0.42619000000000007
558aab19fdf99b65685f0142,learner,Midwest,I am not familiar with Spanish,no,NA,1,0,andalusian_match_declarative-narrow-focus_Daniel-iba-a-Bolivia.wav,cuban,match,declarative-narrow-focus,Daniel iba a Bolivia,34,0,0,1,2.19235,1.29,0.9023499999999998
558aab19fdf99b65685f0142,learner,Midwest,I am not familiar with Spanish,no,NA,1,0,andalusian_match_interrogative-total-yn_Mariano-habla-del-tiempo.wav,peruvian,match,interrogative-total-yn,Mariano habla del tiempo,35,1,1,1,2.00889,1.67,0.33889000000000014
558aab19fdf99b65685f0142,learner,Midwest,I am not familiar with Spanish,no,NA,1,0,andalusian_mismatch_declarative-broad-focus_La-nina-lava-el-plato.wav,puertorican,mismatch,declarative-broad-focus,La nina lava el plato,36,0,0,1,1.5761,1.14,0.43610000000000015
558aab19fdf99b65685f0142,learner,Midwest,I am not familiar with Spanish,no,NA,1,0,andalusian_match_declarative-broad-focus_Emilio-ama-la-marcha.wav,puertorican,match,declarative-broad-focus,Emilio ama la marcha,37,0,0,1,1.589455,1.24,0.34945500000000007
558aab19fdf99b65685f0142,learner,Midwest,I am not familiar with Spanish,no,NA,1,0,andalusian_match_interrogative-partial-wh_Cuando-bebia-el-vino.wav,peruvian,match,interrogative-partial-wh,Cuando bebia el vino,38,1,1,1,1.62593,1.37,0.25593
558aab19fdf99b65685f0142,learner,Midwest,I am not familiar with Spanish,no,NA,1,0,andalusian_match_declarative-narrow-focus_Manuela-vende-el-carro.wav,peruvian,match,declarative-narrow-focus,Manuela vende el carro,39,0,0,1,1.824865,1.55,0.2748649999999999
558aab19fdf99b65685f0142,learner,Midwest,I am not familiar with Spanish,no,NA,1,0,andalusian_match_declarative-broad-focus_Maria-bebe-el-vino.wav,cuban,match,declarative-broad-focus,Maria bebe el vino,40,0,0,1,1.449045,1.25,0.19904499999999992
558aab19fdf99b65685f0142,learner,Midwest,I am not familiar with Spanish,no,NA,1,0,andalusian_match_declarative-narrow-focus_Ana-lleva-el-abrigo.wav,castilian,match,declarative-narrow-focus,Ana lleva el abrigo,41,0,0,1,1.42161,1.22,0.20161000000000007
558aab19fdf99b65685f0142,learner,Midwest,I am not familiar with Spanish,no,NA,1,0,andalusian_match_interrogative-partial-wh_Por-que-abre-el-regalo.wav,cuban,match,interrogative-partial-wh,Por que abre el regalo,42,1,1,1,1.419325,1.22,0.19932499999999997
558aab19fdf99b65685f0142,learner,Midwest,I am not familiar with Spanish,no,NA,1,0,andalusian_mismatch_declarative-narrow-focus_La-maestra-vive-en-Paris.wav,andalusian,mismatch,declarative-narrow-focus,La maestra vive en Paris,43,0,0,1,1.389085,1.19,0.19908499999999996
558aab19fdf99b65685f0142,learner,Midwest,I am not familiar with Spanish,no,NA,1,0,andalusian_match_declarative-narrow-focus_Mariano-habla-del-tiempo.wav,mexican,match,declarative-narrow-focus,Mariano habla del tiempo,44,0,0,1,1.85781,1.22,0.63781
558aab19fdf99b65685f0142,learner,Midwest,I am not familiar with Spanish,no,NA,1,0,andalusian_match_interrogative-partial-wh_Cuando-lleva-el-abrigo.wav,puertorican,match,interrogative-partial-wh,Cuando lleva el abrigo,45,1,1,1,1.36532,1.11,0.25532
558aab19fdf99b65685f0142,learner,Midwest,I am not familiar with Spanish,no,NA,1,0,andalusian_match_interrogative-total-yn_Emilio-ama-la-marcha.wav,cuban,match,interrogative-total-yn,Emilio ama la marcha,46,1,0,0,1.42277,1.28,0.14277000000000006
558aab19fdf99b65685f0142,learner,Midwest,I am not familiar with Spanish,no,NA,1,0,andalusian_mismatch_declarative-broad-focus_El-hombre-mira-la-luna.wav,andalusian,mismatch,declarative-broad-focus,El hombre mira la luna,47,0,1,0,1.918055,1.25,0.6680550000000001
558aab19fdf99b65685f0142,learner,Midwest,I am not familiar with Spanish,no,NA,1,0,andalusian_mismatch_interrogative-partial-wh_Por-que-vivia-en-Paris.wav,peruvian,mismatch,interrogative-partial-wh,Por que vivia en Paris,48,1,0,0,1.733645,1.55,0.18364500000000006
558aab19fdf99b65685f0142,learner,Midwest,I am not familiar with Spanish,no,NA,1,0,andalusian_match_interrogative-total-yn_Ana-lleva-el-abrigo.wav,peruvian,match,interrogative-total-yn,Ana lleva el abrigo,49,1,1,1,1.76801,1.39,0.3780100000000002
558aab19fdf99b65685f0142,learner,Midwest,I am not familiar with Spanish,no,NA,1,0,andalusian_match_interrogative-total-yn_David-leia-el-libro.wav,andalusian,match,interrogative-total-yn,David leia el libro,50,1,1,1,2.44389,1.25,1.1938900000000001
558aab19fdf99b65685f0142,learner,Midwest,I am not familiar with Spanish,no,NA,1,0,andalusian_match_interrogative-partial-wh_Por-que-iba-a-Bolivia.wav,argentine,match,interrogative-partial-wh,Por que iba a Bolivia,51,1,1,1,1.734875,1.11,0.6248749999999998
558aab19fdf99b65685f0142,learner,Midwest,I am not familiar with Spanish,no,NA,1,0,andalusian_mismatch_interrogative-total-yn_El-hombre-mira-la-luna.wav,puertorican,mismatch,interrogative-total-yn,El hombre mira la luna,52,1,1,1,2.75756,1.22,1.5375599999999998
558aab19fdf99b65685f0142,learner,Midwest,I am not familiar with Spanish,no,NA,1,0,andalusian_match_interrogative-partial-wh_Cuando-vendia-el-carro.wav,mexican,match,interrogative-partial-wh,Cuando vendia el carro,53,1,0,0,1.9261,1.02,0.9060999999999999
558aab19fdf99b65685f0142,learner,Midwest,I am not familiar with Spanish,no,NA,1,0,andalusian_mismatch_interrogative-total-yn_Mi-madre-come-la-fruta.wav,castilian,mismatch,interrogative-total-yn,Mi madre come la fruta,54,1,0,0,1.756795,1.51,0.2467950000000001
558aab19fdf99b65685f0142,learner,Midwest,I am not familiar with Spanish,no,NA,1,0,andalusian_mismatch_declarative-broad-focus_La-maestra-vive-en-Paris.wav,cuban,mismatch,declarative-broad-focus,La maestra vive en Paris,55,0,0,1,1.94217,1.29,0.6521699999999999
558aab19fdf99b65685f0142,learner,Midwest,I am not familiar with Spanish,no,NA,1,0,andalusian_match_interrogative-total-yn_Manuela-vende-el-carro.wav,castilian,match,interrogative-total-yn,Manuela vende el carro,56,1,1,1,2.759975,1.49,1.2699749999999999
558aab19fdf99b65685f0142,learner,Midwest,I am not familiar with Spanish,no,NA,1,0,andalusian_match_declarative-narrow-focus_Marta-abre-el-regalo.wav,castilian,match,declarative-narrow-focus,Marta abre el regalo,57,0,0,1,1.732645,1.4,0.3326450000000001
558aab19fdf99b65685f0142,learner,Midwest,I am not familiar with Spanish,no,NA,1,0,andalusian_match_declarative-broad-focus_Mariano-habla-del-tiempo.wav,mexican,match,declarative-broad-focus,Mariano habla del tiempo,58,0,0,1,1.59032,1.22,0.37032
558aab19fdf99b65685f0142,learner,Midwest,I am not familiar with Spanish,no,NA,1,0,andalusian_mismatch_interrogative-partial-wh_Cuando-miraba-la-luna.wav,puertorican,mismatch,interrogative-partial-wh,Cuando miraba la luna,59,1,1,1,1.41656,1.1,0.31655999999999995
558aab19fdf99b65685f0142,learner,Midwest,I am not familiar with Spanish,no,NA,1,0,andalusian_mismatch_interrogative-total-yn_La-maestra-vive-en-Paris.wav,argentine,mismatch,interrogative-total-yn,La maestra vive en Paris,60,1,1,1,2.671765,1.56,1.1117650000000001
558aab19fdf99b65685f0142,learner,Midwest,I am not familiar with Spanish,no,NA,1,0,andalusian_mismatch_declarative-broad-focus_Mi-madre-come-la-fruta.wav,argentine,mismatch,declarative-broad-focus,Mi madre come la fruta,61,0,0,1,1.73079,1.52,0.21079000000000003
558aab19fdf99b65685f0142,learner,Midwest,I am not familiar with Spanish,no,NA,1,0,andalusian_mismatch_declarative-broad-focus_El-nino-oye-el-rio.wav,peruvian,mismatch,declarative-broad-focus,El nino oye el rio,62,0,0,1,1.94119,1.54,0.40118999999999994
558aab19fdf99b65685f0142,learner,Midwest,I am not familiar with Spanish,no,NA,1,0,andalusian_match_declarative-broad-focus_Ana-lleva-el-abrigo.wav,cuban,match,declarative-broad-focus,Ana lleva el abrigo,63,0,0,1,1.60658,1.24,0.3665799999999999
55ce148b34e9060012e56279,learner,Northeast,I am not familiar with Spanish,no,NA,1,0,andalusian_match_interrogative-total-yn_Ana-lleva-el-abrigo.wav,chilean,match,interrogative-total-yn,Ana lleva el abrigo,0,1,1,1,1.909305,1.24,0.669305
55ce148b34e9060012e56279,learner,Northeast,I am not familiar with Spanish,no,NA,1,0,andalusian_match_interrogative-total-yn_Daniel-iba-a-Bolivia.wav,argentine,match,interrogative-total-yn,Daniel iba a Bolivia,1,1,1,1,1.54768,1.41,0.13768000000000002
55ce148b34e9060012e56279,learner,Northeast,I am not familiar with Spanish,no,NA,1,0,andalusian_match_declarative-broad-focus_Emilio-ama-la-marcha.wav,peruvian,match,declarative-broad-focus,Emilio ama la marcha,2,0,0,1,1.807885,1.44,0.367885
55ce148b34e9060012e56279,learner,Northeast,I am not familiar with Spanish,no,NA,1,0,andalusian_mismatch_declarative-narrow-focus_Mi-novio-viene-del-lago.wav,castilian,mismatch,declarative-narrow-focus,Mi novio viene del lago,3,0,0,1,1.89406,1.49,0.4040600000000001
55ce148b34e9060012e56279,learner,Northeast,I am not familiar with Spanish,no,NA,1,0,andalusian_match_declarative-broad-focus_Maria-bebe-el-vino.wav,castilian,match,declarative-broad-focus,Maria bebe el vino,4,0,0,1,1.78883,1.36,0.4288299999999998
55ce148b34e9060012e56279,learner,Northeast,I am not familiar with Spanish,no,NA,1,0,andalusian_mismatch_interrogative-partial-wh_Por-que-desayuna-muy-bien.wav,andalusian,mismatch,interrogative-partial-wh,Por que desayuna muy bien,5,1,1,1,1.72274,1.4,0.32274
55ce148b34e9060012e56279,learner,Northeast,I am not familiar with Spanish,no,NA,1,0,andalusian_mismatch_declarative-narrow-focus_La-nina-lava-el-plato.wav,chilean,mismatch,declarative-narrow-focus,La nina lava el plato,6,0,1,0,1.9066,1.22,0.6866000000000001
55ce148b34e9060012e56279,learner,Northeast,I am not familiar with Spanish,no,NA,1,0,andalusian_mismatch_declarative-broad-focus_El-hombre-mira-la-luna.wav,cuban,mismatch,declarative-broad-focus,El hombre mira la luna,7,0,0,1,1.79782,1.13,0.6678200000000001
55ce148b34e9060012e56279,learner,Northeast,I am not familiar with Spanish,no,NA,1,0,andalusian_match_declarative-narrow-focus_Emilio-ama-la-marcha.wav,argentine,match,declarative-narrow-focus,Emilio ama la marcha,8,0,0,1,1.611765,1.38,0.231765
55ce148b34e9060012e56279,learner,Northeast,I am not familiar with Spanish,no,NA,1,0,andalusian_match_declarative-narrow-focus_Maria-bebe-el-vino.wav,andalusian,match,declarative-narrow-focus,Maria bebe el vino,9,0,1,0,2.177445,1.34,0.837445
55ce148b34e9060012e56279,learner,Northeast,I am not familiar with Spanish,no,NA,1,0,andalusian_match_declarative-broad-focus_Manuela-vende-el-carro.wav,argentine,match,declarative-broad-focus,Manuela vende el carro,10,0,0,1,1.72811,1.38,0.34811000000000014
55ce148b34e9060012e56279,learner,Northeast,I am not familiar with Spanish,no,NA,1,0,andalusian_match_interrogative-partial-wh_Por-que-ama-la-navidad.wav,andalusian,match,interrogative-partial-wh,Por que ama la navidad,11,1,0,0,1.777635,1.33,0.447635
55ce148b34e9060012e56279,learner,Northeast,I am not familiar with Spanish,no,NA,1,0,andalusian_mismatch_interrogative-partial-wh_Por-que-odiaba-la-lluvia.wav,puertorican,mismatch,interrogative-partial-wh,Por que odiaba la lluvia,12,1,0,0,1.840255,1.18,0.660255
55ce148b34e9060012e56279,learner,Northeast,I am not familiar with Spanish,no,NA,1,0,andalusian_match_interrogative-total-yn_Mariano-habla-del-tiempo.wav,cuban,match,interrogative-total-yn,Mariano habla del tiempo,13,1,0,0,2.58124,1.44,1.1412400000000003
55ce148b34e9060012e56279,learner,Northeast,I am not familiar with Spanish,no,NA,1,0,andalusian_match_interrogative-partial-wh_Cuando-lleva-el-abrigo.wav,mexican,match,interrogative-partial-wh,Cuando lleva el abrigo,14,1,1,1,1.47331,1.16,0.31331
55ce148b34e9060012e56279,learner,Northeast,I am not familiar with Spanish,no,NA,1,0,andalusian_mismatch_declarative-narrow-focus_La-maestra-vive-en-Paris.wav,peruvian,mismatch,declarative-narrow-focus,La maestra vive en Paris,15,0,0,1,2.697035,1.74,0.9570350000000001
55ce148b34e9060012e56279,learner,Northeast,I am not familiar with Spanish,no,NA,1,0,andalusian_match_interrogative-partial-wh_Cuando-leia-el-libro.wav,argentine,match,interrogative-partial-wh,Cuando leia el libro,16,1,1,1,1.35794,1.09,0.26793999999999984
55ce148b34e9060012e56279,learner,Northeast,I am not familiar with Spanish,no,NA,1,0,andalusian_mismatch_declarative-broad-focus_El-nino-oye-el-rio.wav,peruvian,mismatch,declarative-broad-focus,El nino oye el rio,17,0,0,1,1.8828,1.54,0.3428
55ce148b34e9060012e56279,learner,Northeast,I am not familiar with Spanish,no,NA,1,0,andalusian_match_interrogative-partial-wh_Por-que-iba-a-Bolivia.wav,puertorican,match,interrogative-partial-wh,Por que iba a Bolivia,18,1,1,1,1.33359,1.02,0.31359000000000004
55ce148b34e9060012e56279,learner,Northeast,I am not familiar with Spanish,no,NA,1,0,andalusian_mismatch_declarative-broad-focus_La-maestra-vive-en-Paris.wav,peruvian,mismatch,declarative-broad-focus,La maestra vive en Paris,19,0,0,1,2.125685,1.75,0.3756849999999998
55ce148b34e9060012e56279,learner,Northeast,I am not familiar with Spanish,no,NA,1,0,andalusian_match_interrogative-total-yn_David-leia-el-libro.wav,castilian,match,interrogative-total-yn,David leia el libro,20,1,1,1,2.164775,1.43,0.7347750000000002
55ce148b34e9060012e56279,learner,Northeast,I am not familiar with Spanish,no,NA,1,0,andalusian_match_interrogative-total-yn_Marta-abre-el-regalo.wav,chilean,match,interrogative-total-yn,Marta abre el regalo,21,1,1,1,1.6553,1.26,0.3953
55ce148b34e9060012e56279,learner,Northeast,I am not familiar with Spanish,no,NA,1,0,andalusian_mismatch_interrogative-total-yn_La-maestra-vive-en-Paris.wav,andalusian,mismatch,interrogative-total-yn,La maestra vive en Paris,22,1,1,1,1.641,1.37,0.2709999999999999
55ce148b34e9060012e56279,learner,Northeast,I am not familiar with Spanish,no,NA,1,0,andalusian_match_declarative-broad-focus_David-leia-el-libro.wav,argentine,match,declarative-broad-focus,David leia el libro,23,0,0,1,2.05952,1.34,0.7195199999999999
55ce148b34e9060012e56279,learner,Northeast,I am not familiar with Spanish,no,NA,1,0,andalusian_mismatch_declarative-broad-focus_Mi-madre-come-la-fruta.wav,peruvian,mismatch,declarative-broad-focus,Mi madre come la fruta,24,0,0,1,2.129075,1.57,0.5590749999999998
55ce148b34e9060012e56279,learner,Northeast,I am not familiar with Spanish,no,NA,1,0,andalusian_match_declarative-narrow-focus_Daniel-iba-a-Bolivia.wav,mexican,match,declarative-narrow-focus,Daniel iba a Bolivia,25,0,0,1,1.616535,1.1,0.516535
55ce148b34e9060012e56279,learner,Northeast,I am not familiar with Spanish,no,NA,1,0,andalusian_match_declarative-narrow-focus_Marta-abre-el-regalo.wav,puertorican,match,declarative-narrow-focus,Marta abre el regalo,26,0,0,1,1.958375,1.16,0.7983750000000001
55ce148b34e9060012e56279,learner,Northeast,I am not familiar with Spanish,no,NA,1,0,andalusian_match_declarative-broad-focus_Ana-lleva-el-abrigo.wav,cuban,match,declarative-broad-focus,Ana lleva el abrigo,27,0,0,1,1.802475,1.24,0.5624750000000001
55ce148b34e9060012e56279,learner,Northeast,I am not familiar with Spanish,no,NA,1,0,andalusian_match_declarative-narrow-focus_Mariano-habla-del-tiempo.wav,chilean,match,declarative-narrow-focus,Mariano habla del tiempo,28,0,0,1,2.54788,1.75,0.7978800000000001
55ce148b34e9060012e56279,learner,Northeast,I am not familiar with Spanish,no,NA,1,0,andalusian_mismatch_interrogative-partial-wh_Cuando-miraba-la-luna.wav,cuban,mismatch,interrogative-partial-wh,Cuando miraba la luna,29,1,1,1,2.2385,1.17,1.0685000000000002
55ce148b34e9060012e56279,learner,Northeast,I am not familiar with Spanish,no,NA,1,0,andalusian_mismatch_interrogative-partial-wh_Por-que-venia-del-lago.wav,cuban,mismatch,interrogative-partial-wh,Por que venia del lago,30,1,1,1,1.22774,1.04,0.18774000000000002
55ce148b34e9060012e56279,learner,Northeast,I am not familiar with Spanish,no,NA,1,0,andalusian_mismatch_declarative-narrow-focus_Mi-madre-come-la-fruta.wav,chilean,mismatch,declarative-narrow-focus,Mi madre come la fruta,31,0,0,1,1.76318,1.17,0.59318
55ce148b34e9060012e56279,learner,Northeast,I am not familiar with Spanish,no,NA,1,0,andalusian_match_declarative-narrow-focus_Manuela-vende-el-carro.wav,peruvian,match,declarative-narrow-focus,Manuela vende el carro,32,0,0,1,1.66095,1.55,0.11094999999999988
55ce148b34e9060012e56279,learner,Northeast,I am not familiar with Spanish,no,NA,1,0,andalusian_match_declarative-broad-focus_Marta-abre-el-regalo.wav,castilian,match,declarative-broad-focus,Marta abre el regalo,33,0,0,1,1.853035,1.4,0.4530350000000001
55ce148b34e9060012e56279,learner,Northeast,I am not familiar with Spanish,no,NA,1,0,andalusian_mismatch_declarative-broad-focus_El-bebe-comia-muy-bien.wav,mexican,mismatch,declarative-broad-focus,El bebe comia muy bien,34,0,0,1,2.101535,1.19,0.9115350000000002
55ce148b34e9060012e56279,learner,Northeast,I am not familiar with Spanish,no,NA,1,0,andalusian_mismatch_interrogative-total-yn_Mi-madre-come-la-fruta.wav,cuban,mismatch,interrogative-total-yn,Mi madre come la fruta,35,1,0,0,1.877545,1.27,0.607545
55ce148b34e9060012e56279,learner,Northeast,I am not familiar with Spanish,no,NA,1,0,andalusian_mismatch_interrogative-total-yn_Mi-tia-odia-la-lluvia.wav,castilian,mismatch,interrogative-total-yn,Mi tia odia la lluvia,36,1,0,0,2.432015,1.46,0.9720149999999999
55ce148b34e9060012e56279,learner,Northeast,I am not familiar with Spanish,no,NA,1,0,andalusian_match_interrogative-total-yn_Manuela-vende-el-carro.wav,castilian,match,interrogative-total-yn,Manuela vende el carro,37,1,0,0,1.774125,1.49,0.28412499999999996
55ce148b34e9060012e56279,learner,Northeast,I am not familiar with Spanish,no,NA,1,0,andalusian_match_declarative-narrow-focus_David-leia-el-libro.wav,peruvian,match,declarative-narrow-focus,David leia el libro,38,0,0,1,1.910265,1.35,0.560265
55ce148b34e9060012e56279,learner,Northeast,I am not familiar with Spanish,no,NA,1,0,andalusian_match_interrogative-total-yn_Maria-bebe-el-vino.wav,andalusian,match,interrogative-total-yn,Maria bebe el vino,39,1,1,1,1.730225,1.15,0.580225
55ce148b34e9060012e56279,learner,Northeast,I am not familiar with Spanish,no,NA,1,0,andalusian_match_interrogative-total-yn_Emilio-ama-la-marcha.wav,chilean,match,interrogative-total-yn,Emilio ama la marcha,40,1,0,0,1.638275,1.33,0.30827499999999985
55ce148b34e9060012e56279,learner,Northeast,I am not familiar with Spanish,no,NA,1,0,andalusian_mismatch_interrogative-total-yn_El-hombre-mira-la-luna.wav,castilian,mismatch,interrogative-total-yn,El hombre mira la luna,41,1,1,1,1.907845,1.29,0.617845
55ce148b34e9060012e56279,learner,Northeast,I am not familiar with Spanish,no,NA,1,0,andalusian_mismatch_declarative-broad-focus_Mi-tia-odia-la-lluvia.wav,castilian,mismatch,declarative-broad-focus,Mi tia odia la lluvia,42,0,0,1,1.677225,1.3,0.3772249999999999
55ce148b34e9060012e56279,learner,Northeast,I am not familiar with Spanish,no,NA,1,0,andalusian_match_interrogative-partial-wh_Por-que-abre-el-regalo.wav,chilean,match,interrogative-partial-wh,Por que abre el regalo,43,1,1,1,1.462975,1.28,0.1829749999999999
55ce148b34e9060012e56279,learner,Northeast,I am not familiar with Spanish,no,NA,1,0,andalusian_mismatch_interrogative-partial-wh_Cuando-lavaba-el-plato.wav,cuban,mismatch,interrogative-partial-wh,Cuando lavaba el plato,44,1,1,1,0.888135,1.22,-0.33186499999999997
55ce148b34e9060012e56279,learner,Northeast,I am not familiar with Spanish,no,NA,1,0,andalusian_mismatch_declarative-narrow-focus_Mi-tia-odia-la-lluvia.wav,peruvian,mismatch,declarative-narrow-focus,Mi tia odia la lluvia,45,0,0,1,2.2519,1.61,0.6418999999999999
55ce148b34e9060012e56279,learner,Northeast,I am not familiar with Spanish,no,NA,1,0,andalusian_mismatch_declarative-broad-focus_La-nina-lava-el-plato.wav,argentine,mismatch,declarative-broad-focus,La nina lava el plato,46,0,0,1,1.516995,1.26,0.2569950000000001
55ce148b34e9060012e56279,learner,Northeast,I am not familiar with Spanish,no,NA,1,0,andalusian_match_declarative-narrow-focus_Ana-lleva-el-abrigo.wav,cuban,match,declarative-narrow-focus,Ana lleva el abrigo,47,0,0,1,1.421835,1.08,0.3418349999999999
55ce148b34e9060012e56279,learner,Northeast,I am not familiar with Spanish,no,NA,1,0,andalusian_match_declarative-broad-focus_Daniel-iba-a-Bolivia.wav,chilean,match,declarative-broad-focus,Daniel iba a Bolivia,48,0,0,1,1.497965,1.1,0.3979649999999999
55ce148b34e9060012e56279,learner,Northeast,I am not familiar with Spanish,no,NA,1,0,andalusian_match_declarative-broad-focus_Mariano-habla-del-tiempo.wav,puertorican,match,declarative-broad-focus,Mariano habla del tiempo,49,0,0,1,1.637755,1.29,0.34775500000000004
55ce148b34e9060012e56279,learner,Northeast,I am not familiar with Spanish,no,NA,1,0,andalusian_match_interrogative-partial-wh_Cuando-bebia-el-vino.wav,puertorican,match,interrogative-partial-wh,Cuando bebia el vino,50,1,1,1,1.99417,1.07,0.9241699999999999
55ce148b34e9060012e56279,learner,Northeast,I am not familiar with Spanish,no,NA,1,0,andalusian_match_interrogative-partial-wh_Por-que-hablaba-del-agua.wav,castilian,match,interrogative-partial-wh,Por que hablaba del agua,51,1,1,1,1.37249,1.46,-0.08750999999999998
55ce148b34e9060012e56279,learner,Northeast,I am not familiar with Spanish,no,NA,1,0,andalusian_mismatch_declarative-narrow-focus_El-bebe-comia-muy-bien.wav,argentine,mismatch,declarative-narrow-focus,El bebe comia muy bien,52,0,0,1,1.491005,1.2,0.29100499999999996
55ce148b34e9060012e56279,learner,Northeast,I am not familiar with Spanish,no,NA,1,0,andalusian_mismatch_declarative-broad-focus_Mi-novio-viene-del-lago.wav,puertorican,mismatch,declarative-broad-focus,Mi novio viene del lago,53,0,0,1,1.46156,1.22,0.24156
55ce148b34e9060012e56279,learner,Northeast,I am not familiar with Spanish,no,NA,1,0,andalusian_mismatch_declarative-narrow-focus_El-nino-oye-el-rio.wav,andalusian,mismatch,declarative-narrow-focus,El nino oye el rio,54,0,0,1,1.40538,1.26,0.14538000000000006
55ce148b34e9060012e56279,learner,Northeast,I am not familiar with Spanish,no,NA,1,0,andalusian_mismatch_interrogative-partial-wh_Por-que-oia-el-rio.wav,andalusian,mismatch,interrogative-partial-wh,Por que oia el rio,55,1,1,1,0.895285,1.27,-0.374715
55ce148b34e9060012e56279,learner,Northeast,I am not familiar with Spanish,no,NA,1,0,andalusian_mismatch_interrogative-total-yn_La-nina-lava-el-plato.wav,andalusian,mismatch,interrogative-total-yn,La nina lava el plato,56,1,0,0,1.487795,1.41,0.07779500000000006
55ce148b34e9060012e56279,learner,Northeast,I am not familiar with Spanish,no,NA,1,0,andalusian_mismatch_interrogative-total-yn_El-bebe-comia-muy-bien.wav,chilean,mismatch,interrogative-total-yn,El bebe comia muy bien,57,1,0,0,2.070905,1.42,0.6509050000000003
55ce148b34e9060012e56279,learner,Northeast,I am not familiar with Spanish,no,NA,1,0,andalusian_mismatch_interrogative-total-yn_Mi-novio-viene-del-lago.wav,chilean,mismatch,interrogative-total-yn,Mi novio viene del lago,58,1,0,0,2.23157,1.29,0.94157
55ce148b34e9060012e56279,learner,Northeast,I am not familiar with Spanish,no,NA,1,0,andalusian_mismatch_interrogative-partial-wh_Por-que-vivia-en-Paris.wav,castilian,mismatch,interrogative-partial-wh,Por que vivia en Paris,59,1,1,1,1.927345,1.49,0.4373450000000001
55ce148b34e9060012e56279,learner,Northeast,I am not familiar with Spanish,no,NA,1,0,andalusian_mismatch_interrogative-partial-wh_Cuando-comia-la-fruta.wav,chilean,mismatch,interrogative-partial-wh,Cuando comia la fruta,60,1,1,1,1.6067,1.24,0.3667
55ce148b34e9060012e56279,learner,Northeast,I am not familiar with Spanish,no,NA,1,0,andalusian_mismatch_declarative-narrow-focus_El-hombre-mira-la-luna.wav,puertorican,mismatch,declarative-narrow-focus,El hombre mira la luna,61,0,0,1,2.3492,1.13,1.2192000000000003
55ce148b34e9060012e56279,learner,Northeast,I am not familiar with Spanish,no,NA,1,0,andalusian_mismatch_interrogative-total-yn_El-nino-oye-el-rio.wav,andalusian,mismatch,interrogative-total-yn,El nino oye el rio,62,1,1,1,2.76299,1.52,1.2429899999999998
55ce148b34e9060012e56279,learner,Northeast,I am not familiar with Spanish,no,NA,1,0,andalusian_match_interrogative-partial-wh_Cuando-vendia-el-carro.wav,chilean,match,interrogative-partial-wh,Cuando vendia el carro,63,1,1,1,2.257855,1.32,0.9378550000000001
5658000ca9872d0011e1ba26,learner,Midwest,I am not familiar with Spanish,no,NA,1,0,andalusian_match_declarative-broad-focus_Emilio-ama-la-marcha.wav,argentine,match,declarative-broad-focus,Emilio ama la marcha,0,0,0,1,2.093,1.38,0.7130000000000001
5658000ca9872d0011e1ba26,learner,Midwest,I am not familiar with Spanish,no,NA,1,0,andalusian_match_declarative-broad-focus_Manuela-vende-el-carro.wav,peruvian,match,declarative-broad-focus,Manuela vende el carro,1,0,0,1,2.134,1.52,0.6139999999999999
5658000ca9872d0011e1ba26,learner,Midwest,I am not familiar with Spanish,no,NA,1,0,andalusian_mismatch_declarative-broad-focus_La-nina-lava-el-plato.wav,cuban,mismatch,declarative-broad-focus,La nina lava el plato,2,0,0,1,1.83,1.22,0.6100000000000001
5658000ca9872d0011e1ba26,learner,Midwest,I am not familiar with Spanish,no,NA,1,0,andalusian_mismatch_interrogative-total-yn_El-bebe-comia-muy-bien.wav,andalusian,mismatch,interrogative-total-yn,El bebe comia muy bien,3,1,1,1,3.259,1.33,1.9289999999999998
5658000ca9872d0011e1ba26,learner,Midwest,I am not familiar with Spanish,no,NA,1,0,andalusian_mismatch_interrogative-partial-wh_Cuando-comia-la-fruta.wav,cuban,mismatch,interrogative-partial-wh,Cuando comia la fruta,4,1,0,0,3.181,1.03,2.151
5658000ca9872d0011e1ba26,learner,Midwest,I am not familiar with Spanish,no,NA,1,0,andalusian_match_interrogative-total-yn_David-leia-el-libro.wav,chilean,match,interrogative-total-yn,David leia el libro,5,1,1,1,3.302,1.2,2.1020000000000003
5658000ca9872d0011e1ba26,learner,Midwest,I am not familiar with Spanish,no,NA,1,0,andalusian_mismatch_declarative-broad-focus_Mi-madre-come-la-fruta.wav,argentine,mismatch,declarative-broad-focus,Mi madre come la fruta,6,0,0,1,3.177,1.52,1.657
5658000ca9872d0011e1ba26,learner,Midwest,I am not familiar with Spanish,no,NA,1,0,andalusian_match_declarative-narrow-focus_Emilio-ama-la-marcha.wav,argentine,match,declarative-narrow-focus,Emilio ama la marcha,7,0,0,1,2.101,1.38,0.7210000000000001
5658000ca9872d0011e1ba26,learner,Midwest,I am not familiar with Spanish,no,NA,1,0,andalusian_match_interrogative-partial-wh_Cuando-vendia-el-carro.wav,argentine,match,interrogative-partial-wh,Cuando vendia el carro,8,1,0,0,2.451,1.11,1.341
5658000ca9872d0011e1ba26,learner,Midwest,I am not familiar with Spanish,no,NA,1,0,andalusian_mismatch_declarative-broad-focus_El-hombre-mira-la-luna.wav,mexican,mismatch,declarative-broad-focus,El hombre mira la luna,9,0,0,1,1.906,1.22,0.6859999999999999
5658000ca9872d0011e1ba26,learner,Midwest,I am not familiar with Spanish,no,NA,1,0,andalusian_match_interrogative-partial-wh_Por-que-iba-a-Bolivia.wav,andalusian,match,interrogative-partial-wh,Por que iba a Bolivia,10,1,1,1,2.411,1.23,1.181
5658000ca9872d0011e1ba26,learner,Midwest,I am not familiar with Spanish,no,NA,1,0,andalusian_mismatch_declarative-narrow-focus_Mi-madre-come-la-fruta.wav,chilean,mismatch,declarative-narrow-focus,Mi madre come la fruta,11,0,0,1,2.414,1.17,1.2440000000000002
5658000ca9872d0011e1ba26,learner,Midwest,I am not familiar with Spanish,no,NA,1,0,andalusian_match_declarative-narrow-focus_Ana-lleva-el-abrigo.wav,chilean,match,declarative-narrow-focus,Ana lleva el abrigo,12,0,0,1,2.056,1.08,0.976
5658000ca9872d0011e1ba26,learner,Midwest,I am not familiar with Spanish,no,NA,1,0,andalusian_match_declarative-narrow-focus_Daniel-iba-a-Bolivia.wav,mexican,match,declarative-narrow-focus,Daniel iba a Bolivia,13,0,0,1,2.109,1.1,1.009
5658000ca9872d0011e1ba26,learner,Midwest,I am not familiar with Spanish,no,NA,1,0,andalusian_match_interrogative-total-yn_Mariano-habla-del-tiempo.wav,puertorican,match,interrogative-total-yn,Mariano habla del tiempo,14,1,0,0,2.631,1.27,1.3609999999999998
5658000ca9872d0011e1ba26,learner,Midwest,I am not familiar with Spanish,no,NA,1,0,andalusian_match_declarative-narrow-focus_Manuela-vende-el-carro.wav,cuban,match,declarative-narrow-focus,Manuela vende el carro,15,0,0,1,1.913,1.38,0.5330000000000001
5658000ca9872d0011e1ba26,learner,Midwest,I am not familiar with Spanish,no,NA,1,0,andalusian_match_interrogative-partial-wh_Cuando-lleva-el-abrigo.wav,peruvian,match,interrogative-partial-wh,Cuando lleva el abrigo,16,1,1,1,3.704,1.39,2.314
5658000ca9872d0011e1ba26,learner,Midwest,I am not familiar with Spanish,no,NA,1,0,andalusian_mismatch_declarative-broad-focus_La-maestra-vive-en-Paris.wav,castilian,mismatch,declarative-broad-focus,La maestra vive en Paris,17,0,0,1,3.819,1.6,2.219
5658000ca9872d0011e1ba26,learner,Midwest,I am not familiar with Spanish,no,NA,1,0,andalusian_mismatch_interrogative-partial-wh_Por-que-oia-el-rio.wav,chilean,mismatch,interrogative-partial-wh,Por que oia el rio,18,1,0,0,2.33,1.42,0.9100000000000001
5658000ca9872d0011e1ba26,learner,Midwest,I am not familiar with Spanish,no,NA,1,0,andalusian_match_declarative-narrow-focus_Maria-bebe-el-vino.wav,mexican,match,declarative-narrow-focus,Maria bebe el vino,19,0,0,1,2.293,1.08,1.213
5658000ca9872d0011e1ba26,learner,Midwest,I am not familiar with Spanish,no,NA,1,0,andalusian_match_declarative-broad-focus_Marta-abre-el-regalo.wav,puertorican,match,declarative-broad-focus,Marta abre el regalo,20,0,0,1,2.058,1.18,0.8779999999999999
5658000ca9872d0011e1ba26,learner,Midwest,I am not familiar with Spanish,no,NA,1,0,andalusian_match_interrogative-partial-wh_Por-que-ama-la-navidad.wav,peruvian,match,interrogative-partial-wh,Por que ama la navidad,21,1,0,0,3.972,1.54,2.432
5658000ca9872d0011e1ba26,learner,Midwest,I am not familiar with Spanish,no,NA,1,0,andalusian_mismatch_interrogative-total-yn_Mi-madre-come-la-fruta.wav,chilean,mismatch,interrogative-total-yn,Mi madre come la fruta,22,1,1,1,2.334,1.29,1.044
5658000ca9872d0011e1ba26,learner,Midwest,I am not familiar with Spanish,no,NA,1,0,andalusian_match_interrogative-partial-wh_Cuando-leia-el-libro.wav,andalusian,match,interrogative-partial-wh,Cuando leia el libro,23,1,1,1,3.897,1.31,2.5869999999999997
5658000ca9872d0011e1ba26,learner,Midwest,I am not familiar with Spanish,no,NA,1,0,andalusian_match_declarative-narrow-focus_Mariano-habla-del-tiempo.wav,chilean,match,declarative-narrow-focus,Mariano habla del tiempo,24,0,0,1,3.056,1.75,1.306
5658000ca9872d0011e1ba26,learner,Midwest,I am not familiar with Spanish,no,NA,1,0,andalusian_mismatch_interrogative-total-yn_La-maestra-vive-en-Paris.wav,castilian,mismatch,interrogative-total-yn,La maestra vive en Paris,25,1,1,1,2.798,1.76,1.038
5658000ca9872d0011e1ba26,learner,Midwest,I am not familiar with Spanish,no,NA,1,0,andalusian_match_interrogative-total-yn_Manuela-vende-el-carro.wav,puertorican,match,interrogative-total-yn,Manuela vende el carro,26,1,0,0,2.385,1.16,1.2249999999999999
5658000ca9872d0011e1ba26,learner,Midwest,I am not familiar with Spanish,no,NA,1,0,andalusian_match_declarative-narrow-focus_Marta-abre-el-regalo.wav,peruvian,match,declarative-narrow-focus,Marta abre el regalo,27,0,0,1,2.114,1.37,0.7439999999999998
5658000ca9872d0011e1ba26,learner,Midwest,I am not familiar with Spanish,no,NA,1,0,andalusian_match_interrogative-total-yn_Emilio-ama-la-marcha.wav,cuban,match,interrogative-total-yn,Emilio ama la marcha,28,1,0,0,1.818,1.28,0.538
5658000ca9872d0011e1ba26,learner,Midwest,I am not familiar with Spanish,no,NA,1,0,andalusian_mismatch_interrogative-partial-wh_Por-que-vivia-en-Paris.wav,andalusian,mismatch,interrogative-partial-wh,Por que vivia en Paris,29,1,1,1,2.19,1.17,1.02
5658000ca9872d0011e1ba26,learner,Midwest,I am not familiar with Spanish,no,NA,1,0,andalusian_mismatch_interrogative-total-yn_Mi-tia-odia-la-lluvia.wav,cuban,mismatch,interrogative-total-yn,Mi tia odia la lluvia,30,1,0,0,2.377,1.22,1.1569999999999998
5658000ca9872d0011e1ba26,learner,Midwest,I am not familiar with Spanish,no,NA,1,0,andalusian_mismatch_interrogative-partial-wh_Por-que-venia-del-lago.wav,andalusian,mismatch,interrogative-partial-wh,Por que venia del lago,31,1,1,1,3.201,1.29,1.911
5658000ca9872d0011e1ba26,learner,Midwest,I am not familiar with Spanish,no,NA,1,0,andalusian_mismatch_declarative-narrow-focus_La-nina-lava-el-plato.wav,chilean,mismatch,declarative-narrow-focus,La nina lava el plato,32,0,0,1,3.213,1.22,1.993
5658000ca9872d0011e1ba26,learner,Midwest,I am not familiar with Spanish,no,NA,1,0,andalusian_match_interrogative-partial-wh_Cuando-bebia-el-vino.wav,argentine,match,interrogative-partial-wh,Cuando bebia el vino,33,1,1,1,5.795,1.14,4.655
5658000ca9872d0011e1ba26,learner,Midwest,I am not familiar with Spanish,no,NA,1,0,andalusian_match_interrogative-total-yn_Ana-lleva-el-abrigo.wav,argentine,match,interrogative-total-yn,Ana lleva el abrigo,34,1,1,1,2.727,1.34,1.3869999999999998
5658000ca9872d0011e1ba26,learner,Midwest,I am not familiar with Spanish,no,NA,1,0,andalusian_mismatch_declarative-broad-focus_El-nino-oye-el-rio.wav,mexican,mismatch,declarative-broad-focus,El nino oye el rio,35,0,0,1,3.122,1.08,2.042
5658000ca9872d0011e1ba26,learner,Midwest,I am not familiar with Spanish,no,NA,1,0,andalusian_match_interrogative-partial-wh_Por-que-abre-el-regalo.wav,andalusian,match,interrogative-partial-wh,Por que abre el regalo,36,1,0,0,3.981,1.21,2.771
5658000ca9872d0011e1ba26,learner,Midwest,I am not familiar with Spanish,no,NA,1,0,andalusian_match_interrogative-total-yn_Daniel-iba-a-Bolivia.wav,castilian,match,interrogative-total-yn,Daniel iba a Bolivia,37,1,1,1,2.336,1.29,1.0459999999999998
5658000ca9872d0011e1ba26,learner,Midwest,I am not familiar with Spanish,no,NA,1,0,andalusian_mismatch_interrogative-partial-wh_Cuando-miraba-la-luna.wav,mexican,mismatch,interrogative-partial-wh,Cuando miraba la luna,38,1,1,1,1.972,1.05,0.9219999999999999
5658000ca9872d0011e1ba26,learner,Midwest,I am not familiar with Spanish,no,NA,1,0,andalusian_match_interrogative-partial-wh_Por-que-hablaba-del-agua.wav,castilian,match,interrogative-partial-wh,Por que hablaba del agua,39,1,1,1,2.61,1.46,1.15
5658000ca9872d0011e1ba26,learner,Midwest,I am not familiar with Spanish,no,NA,1,0,andalusian_mismatch_interrogative-total-yn_El-hombre-mira-la-luna.wav,castilian,mismatch,interrogative-total-yn,El hombre mira la luna,40,1,1,1,2.077,1.29,0.7869999999999999
5658000ca9872d0011e1ba26,learner,Midwest,I am not familiar with Spanish,no,NA,1,0,andalusian_mismatch_interrogative-total-yn_El-nino-oye-el-rio.wav,puertorican,mismatch,interrogative-total-yn,El nino oye el rio,41,1,0,0,2.068,1.13,0.9380000000000002
5658000ca9872d0011e1ba26,learner,Midwest,I am not familiar with Spanish,no,NA,1,0,andalusian_mismatch_declarative-narrow-focus_El-bebe-comia-muy-bien.wav,chilean,mismatch,declarative-narrow-focus,El bebe comia muy bien,42,0,0,1,3.489,1.29,2.199
5658000ca9872d0011e1ba26,learner,Midwest,I am not familiar with Spanish,no,NA,1,0,andalusian_match_interrogative-total-yn_Maria-bebe-el-vino.wav,chilean,match,interrogative-total-yn,Maria bebe el vino,43,1,0,0,3.16,1.2,1.9600000000000002
5658000ca9872d0011e1ba26,learner,Midwest,I am not familiar with Spanish,no,NA,1,0,andalusian_mismatch_interrogative-total-yn_Mi-novio-viene-del-lago.wav,castilian,mismatch,interrogative-total-yn,Mi novio viene del lago,44,1,0,0,2.66,1.53,1.1300000000000001
5658000ca9872d0011e1ba26,learner,Midwest,I am not familiar with Spanish,no,NA,1,0,andalusian_match_declarative-broad-focus_Daniel-iba-a-Bolivia.wav,chilean,match,declarative-broad-focus,Daniel iba a Bolivia,45,0,0,1,2.17,1.1,1.0699999999999998
5658000ca9872d0011e1ba26,learner,Midwest,I am not familiar with Spanish,no,NA,1,0,andalusian_mismatch_declarative-narrow-focus_El-nino-oye-el-rio.wav,andalusian,mismatch,declarative-narrow-focus,El nino oye el rio,46,0,0,1,2.255,1.26,0.9949999999999999
5658000ca9872d0011e1ba26,learner,Midwest,I am not familiar with Spanish,no,NA,1,0,andalusian_mismatch_interrogative-partial-wh_Por-que-desayuna-muy-bien.wav,chilean,mismatch,interrogative-partial-wh,Por que desayuna muy bien,47,1,1,1,2.181,1.45,0.7310000000000001
5658000ca9872d0011e1ba26,learner,Midwest,I am not familiar with Spanish,no,NA,1,0,andalusian_match_declarative-broad-focus_Ana-lleva-el-abrigo.wav,castilian,match,declarative-broad-focus,Ana lleva el abrigo,48,0,0,1,2.368,1.26,1.1079999999999999
5658000ca9872d0011e1ba26,learner,Midwest,I am not familiar with Spanish,no,NA,1,0,andalusian_mismatch_declarative-broad-focus_Mi-novio-viene-del-lago.wav,cuban,mismatch,declarative-broad-focus,Mi novio viene del lago,49,0,0,1,1.952,1.4,0.552
5658000ca9872d0011e1ba26,learner,Midwest,I am not familiar with Spanish,no,NA,1,0,andalusian_mismatch_declarative-narrow-focus_El-hombre-mira-la-luna.wav,chilean,mismatch,declarative-narrow-focus,El hombre mira la luna,50,0,0,1,1.786,1.2,0.5860000000000001
5658000ca9872d0011e1ba26,learner,Midwest,I am not familiar with Spanish,no,NA,1,0,andalusian_mismatch_declarative-broad-focus_El-bebe-comia-muy-bien.wav,castilian,mismatch,declarative-broad-focus,El bebe comia muy bien,51,0,0,1,1.982,1.6,0.3819999999999999
5658000ca9872d0011e1ba26,learner,Midwest,I am not familiar with Spanish,no,NA,1,0,andalusian_mismatch_declarative-broad-focus_Mi-tia-odia-la-lluvia.wav,peruvian,mismatch,declarative-broad-focus,Mi tia odia la lluvia,52,0,0,1,2.105,1.64,0.4650000000000001
5658000ca9872d0011e1ba26,learner,Midwest,I am not familiar with Spanish,no,NA,1,0,andalusian_mismatch_interrogative-total-yn_La-nina-lava-el-plato.wav,cuban,mismatch,interrogative-total-yn,La nina lava el plato,53,1,0,0,2.201,1.19,1.0110000000000001
5658000ca9872d0011e1ba26,learner,Midwest,I am not familiar with Spanish,no,NA,1,0,andalusian_match_declarative-broad-focus_Mariano-habla-del-tiempo.wav,mexican,match,declarative-broad-focus,Mariano habla del tiempo,54,0,0,1,2.067,1.22,0.8470000000000002
5658000ca9872d0011e1ba26,learner,Midwest,I am not familiar with Spanish,no,NA,1,0,andalusian_match_declarative-broad-focus_Maria-bebe-el-vino.wav,andalusian,match,declarative-broad-focus,Maria bebe el vino,55,0,0,1,1.993,1.11,0.883
5658000ca9872d0011e1ba26,learner,Midwest,I am not familiar with Spanish,no,NA,1,0,andalusian_match_declarative-narrow-focus_David-leia-el-libro.wav,cuban,match,declarative-narrow-focus,David leia el libro,56,0,0,1,1.884,1.35,0.5339999999999998
5658000ca9872d0011e1ba26,learner,Midwest,I am not familiar with Spanish,no,NA,1,0,andalusian_mismatch_declarative-narrow-focus_La-maestra-vive-en-Paris.wav,castilian,mismatch,declarative-narrow-focus,La maestra vive en Paris,57,0,0,1,2.427,1.72,0.7070000000000001
5658000ca9872d0011e1ba26,learner,Midwest,I am not familiar with Spanish,no,NA,1,0,andalusian_mismatch_interrogative-partial-wh_Cuando-lavaba-el-plato.wav,castilian,mismatch,interrogative-partial-wh,Cuando lavaba el plato,58,1,1,1,2.051,1.33,0.7210000000000001
5658000ca9872d0011e1ba26,learner,Midwest,I am not familiar with Spanish,no,NA,1,0,andalusian_mismatch_declarative-narrow-focus_Mi-novio-viene-del-lago.wav,peruvian,mismatch,declarative-narrow-focus,Mi novio viene del lago,59,0,0,1,2.555,1.5,1.0550000000000002
5658000ca9872d0011e1ba26,learner,Midwest,I am not familiar with Spanish,no,NA,1,0,andalusian_mismatch_declarative-narrow-focus_Mi-tia-odia-la-lluvia.wav,peruvian,mismatch,declarative-narrow-focus,Mi tia odia la lluvia,60,0,0,1,2.613,1.61,1.003
5658000ca9872d0011e1ba26,learner,Midwest,I am not familiar with Spanish,no,NA,1,0,andalusian_match_interrogative-total-yn_Marta-abre-el-regalo.wav,mexican,match,interrogative-total-yn,Marta abre el regalo,61,1,1,1,2.259,1.15,1.109
5658000ca9872d0011e1ba26,learner,Midwest,I am not familiar with Spanish,no,NA,1,0,andalusian_match_declarative-broad-focus_David-leia-el-libro.wav,argentine,match,declarative-broad-focus,David leia el libro,62,0,0,1,2.523,1.34,1.183
5658000ca9872d0011e1ba26,learner,Midwest,I am not familiar with Spanish,no,NA,1,0,andalusian_mismatch_interrogative-partial-wh_Por-que-odiaba-la-lluvia.wav,puertorican,mismatch,interrogative-partial-wh,Por que odiaba la lluvia,63,1,0,0,1.926,1.18,0.746
56e6a66af6ed900006a5867c,learner,Midwest,United States,no,13 or older,1,0,andalusian_mismatch_interrogative-total-yn_El-hombre-mira-la-luna.wav,chilean,mismatch,interrogative-total-yn,El hombre mira la luna,0,1,1,1,3.174,1.18,1.994
56e6a66af6ed900006a5867c,learner,Midwest,United States,no,13 or older,1,0,andalusian_match_interrogative-total-yn_Emilio-ama-la-marcha.wav,mexican,match,interrogative-total-yn,Emilio ama la marcha,1,1,1,1,2.936,1.23,1.706
56e6a66af6ed900006a5867c,learner,Midwest,United States,no,13 or older,1,0,andalusian_match_interrogative-partial-wh_Cuando-bebia-el-vino.wav,cuban,match,interrogative-partial-wh,Cuando bebia el vino,2,1,0,0,2.584,1.12,1.464
56e6a66af6ed900006a5867c,learner,Midwest,United States,no,13 or older,1,0,andalusian_match_declarative-narrow-focus_Mariano-habla-del-tiempo.wav,chilean,match,declarative-narrow-focus,Mariano habla del tiempo,3,0,0,1,3.638,1.75,1.888
56e6a66af6ed900006a5867c,learner,Midwest,United States,no,13 or older,1,0,andalusian_mismatch_declarative-narrow-focus_Mi-novio-viene-del-lago.wav,andalusian,mismatch,declarative-narrow-focus,Mi novio viene del lago,4,0,1,0,2.179,1.21,0.9689999999999999
56e6a66af6ed900006a5867c,learner,Midwest,United States,no,13 or older,1,0,andalusian_mismatch_interrogative-partial-wh_Por-que-venia-del-lago.wav,andalusian,mismatch,interrogative-partial-wh,Por que venia del lago,5,1,0,0,2.334,1.29,1.044
56e6a66af6ed900006a5867c,learner,Midwest,United States,no,13 or older,1,0,andalusian_mismatch_declarative-narrow-focus_La-nina-lava-el-plato.wav,cuban,mismatch,declarative-narrow-focus,La nina lava el plato,6,0,0,1,2.152,1.16,0.9920000000000002
56e6a66af6ed900006a5867c,learner,Midwest,United States,no,13 or older,1,0,andalusian_mismatch_interrogative-partial-wh_Por-que-vivia-en-Paris.wav,puertorican,mismatch,interrogative-partial-wh,Por que vivia en Paris,7,1,0,0,2.595,1.04,1.5550000000000002
56e6a66af6ed900006a5867c,learner,Midwest,United States,no,13 or older,1,0,andalusian_mismatch_declarative-narrow-focus_La-maestra-vive-en-Paris.wav,chilean,mismatch,declarative-narrow-focus,La maestra vive en Paris,8,0,1,0,3.318,1.33,1.988
56e6a66af6ed900006a5867c,learner,Midwest,United States,no,13 or older,1,0,andalusian_mismatch_declarative-broad-focus_Mi-tia-odia-la-lluvia.wav,chilean,mismatch,declarative-broad-focus,Mi tia odia la lluvia,9,0,1,0,2.093,1.34,0.7529999999999999
56e6a66af6ed900006a5867c,learner,Midwest,United States,no,13 or older,1,0,andalusian_match_declarative-narrow-focus_Maria-bebe-el-vino.wav,puertorican,match,declarative-narrow-focus,Maria bebe el vino,10,0,1,0,2.395,1.2,1.195
56e6a66af6ed900006a5867c,learner,Midwest,United States,no,13 or older,1,0,andalusian_match_interrogative-total-yn_Daniel-iba-a-Bolivia.wav,castilian,match,interrogative-total-yn,Daniel iba a Bolivia,11,1,1,1,2.329,1.29,1.0390000000000001
56e6a66af6ed900006a5867c,learner,Midwest,United States,no,13 or older,1,0,andalusian_match_declarative-narrow-focus_Daniel-iba-a-Bolivia.wav,argentine,match,declarative-narrow-focus,Daniel iba a Bolivia,12,0,1,0,3.461,1.27,2.191
56e6a66af6ed900006a5867c,learner,Midwest,United States,no,13 or older,1,0,andalusian_mismatch_interrogative-total-yn_La-nina-lava-el-plato.wav,chilean,mismatch,interrogative-total-yn,La nina lava el plato,13,1,1,1,2.41,1.15,1.2600000000000002
56e6a66af6ed900006a5867c,learner,Midwest,United States,no,13 or older,1,0,andalusian_match_declarative-narrow-focus_Marta-abre-el-regalo.wav,peruvian,match,declarative-narrow-focus,Marta abre el regalo,14,0,0,1,2.051,1.37,0.681
56e6a66af6ed900006a5867c,learner,Midwest,United States,no,13 or older,1,0,andalusian_mismatch_interrogative-total-yn_Mi-novio-viene-del-lago.wav,cuban,mismatch,interrogative-total-yn,Mi novio viene del lago,15,1,0,0,2.486,1.36,1.1260000000000001
56e6a66af6ed900006a5867c,learner,Midwest,United States,no,13 or older,1,0,andalusian_match_declarative-narrow-focus_Emilio-ama-la-marcha.wav,mexican,match,declarative-narrow-focus,Emilio ama la marcha,16,0,0,1,3.071,1.14,1.9310000000000003
56e6a66af6ed900006a5867c,learner,Midwest,United States,no,13 or older,1,0,andalusian_match_interrogative-partial-wh_Por-que-abre-el-regalo.wav,chilean,match,interrogative-partial-wh,Por que abre el regalo,17,1,1,1,2.052,1.28,0.772
56e6a66af6ed900006a5867c,learner,Midwest,United States,no,13 or older,1,0,andalusian_match_interrogative-total-yn_Manuela-vende-el-carro.wav,castilian,match,interrogative-total-yn,Manuela vende el carro,18,1,1,1,2.093,1.49,0.603
56e6a66af6ed900006a5867c,learner,Midwest,United States,no,13 or older,1,0,andalusian_match_interrogative-total-yn_Ana-lleva-el-abrigo.wav,peruvian,match,interrogative-total-yn,Ana lleva el abrigo,19,1,1,1,5.185,1.39,3.795
56e6a66af6ed900006a5867c,learner,Midwest,United States,no,13 or older,1,0,andalusian_mismatch_interrogative-partial-wh_Cuando-lavaba-el-plato.wav,castilian,mismatch,interrogative-partial-wh,Cuando lavaba el plato,20,1,1,1,2.022,1.33,0.6919999999999997
56e6a66af6ed900006a5867c,learner,Midwest,United States,no,13 or older,1,0,andalusian_mismatch_interrogative-total-yn_Mi-madre-come-la-fruta.wav,argentine,mismatch,interrogative-total-yn,Mi madre come la fruta,21,1,1,1,2.036,1.5,0.536
56e6a66af6ed900006a5867c,learner,Midwest,United States,no,13 or older,1,0,andalusian_match_interrogative-partial-wh_Por-que-iba-a-Bolivia.wav,cuban,match,interrogative-partial-wh,Por que iba a Bolivia,22,1,0,0,2.084,1.2,0.8840000000000001
56e6a66af6ed900006a5867c,learner,Midwest,United States,no,13 or older,1,0,andalusian_match_declarative-broad-focus_Emilio-ama-la-marcha.wav,argentine,match,declarative-broad-focus,Emilio ama la marcha,23,0,0,1,2.239,1.38,0.859
56e6a66af6ed900006a5867c,learner,Midwest,United States,no,13 or older,1,0,andalusian_mismatch_interrogative-partial-wh_Por-que-odiaba-la-lluvia.wav,andalusian,mismatch,interrogative-partial-wh,Por que odiaba la lluvia,24,1,0,0,2.211,1.31,0.9009999999999998
56e6a66af6ed900006a5867c,learner,Midwest,United States,no,13 or older,1,0,andalusian_mismatch_interrogative-total-yn_El-nino-oye-el-rio.wav,puertorican,mismatch,interrogative-total-yn,El nino oye el rio,25,1,0,0,2.034,1.13,0.9039999999999999
56e6a66af6ed900006a5867c,learner,Midwest,United States,no,13 or older,1,0,andalusian_mismatch_interrogative-total-yn_La-maestra-vive-en-Paris.wav,argentine,mismatch,interrogative-total-yn,La maestra vive en Paris,26,1,1,1,2.319,1.56,0.7589999999999999
56e6a66af6ed900006a5867c,learner,Midwest,United States,no,13 or older,1,0,andalusian_mismatch_interrogative-total-yn_Mi-tia-odia-la-lluvia.wav,chilean,mismatch,interrogative-total-yn,Mi tia odia la lluvia,27,1,1,1,2.373,1.37,1.0030000000000001
56e6a66af6ed900006a5867c,learner,Midwest,United States,no,13 or older,1,0,andalusian_mismatch_declarative-broad-focus_La-maestra-vive-en-Paris.wav,chilean,mismatch,declarative-broad-focus,La maestra vive en Paris,28,0,0,1,2.011,1.22,0.7910000000000001
56e6a66af6ed900006a5867c,learner,Midwest,United States,no,13 or older,1,0,andalusian_mismatch_declarative-broad-focus_El-nino-oye-el-rio.wav,chilean,mismatch,declarative-broad-focus,El nino oye el rio,29,0,0,1,2.484,1.39,1.094
56e6a66af6ed900006a5867c,learner,Midwest,United States,no,13 or older,1,0,andalusian_match_interrogative-partial-wh_Por-que-hablaba-del-agua.wav,cuban,match,interrogative-partial-wh,Por que hablaba del agua,30,1,0,0,2.712,1.38,1.3320000000000003
56e6a66af6ed900006a5867c,learner,Midwest,United States,no,13 or older,1,0,andalusian_match_declarative-broad-focus_Maria-bebe-el-vino.wav,argentine,match,declarative-broad-focus,Maria bebe el vino,31,0,0,1,1.882,1.12,0.7619999999999998
56e6a66af6ed900006a5867c,learner,Midwest,United States,no,13 or older,1,0,andalusian_match_interrogative-total-yn_Mariano-habla-del-tiempo.wav,argentine,match,interrogative-total-yn,Mariano habla del tiempo,32,1,1,1,2.105,1.51,0.595
56e6a66af6ed900006a5867c,learner,Midwest,United States,no,13 or older,1,0,andalusian_match_declarative-broad-focus_David-leia-el-libro.wav,mexican,match,declarative-broad-focus,David leia el libro,33,0,0,1,4.41,1.1,3.31
56e6a66af6ed900006a5867c,learner,Midwest,United States,no,13 or older,1,0,andalusian_mismatch_declarative-narrow-focus_Mi-madre-come-la-fruta.wav,andalusian,mismatch,declarative-narrow-focus,Mi madre come la fruta,34,0,0,1,4.175,1.38,2.795
56e6a66af6ed900006a5867c,learner,Midwest,United States,no,13 or older,1,0,andalusian_match_declarative-narrow-focus_Ana-lleva-el-abrigo.wav,argentine,match,declarative-narrow-focus,Ana lleva el abrigo,35,0,0,1,1.934,1.16,0.774
56e6a66af6ed900006a5867c,learner,Midwest,United States,no,13 or older,1,0,andalusian_mismatch_declarative-narrow-focus_El-bebe-comia-muy-bien.wav,cuban,mismatch,declarative-narrow-focus,El bebe comia muy bien,36,0,0,1,1.94,1.1,0.8399999999999999
56e6a66af6ed900006a5867c,learner,Midwest,United States,no,13 or older,1,0,andalusian_mismatch_interrogative-partial-wh_Cuando-miraba-la-luna.wav,mexican,mismatch,interrogative-partial-wh,Cuando miraba la luna,37,1,1,1,2.335,1.05,1.285
56e6a66af6ed900006a5867c,learner,Midwest,United States,no,13 or older,1,0,andalusian_mismatch_declarative-broad-focus_Mi-novio-viene-del-lago.wav,cuban,mismatch,declarative-broad-focus,Mi novio viene del lago,38,0,0,1,2.173,1.4,0.7730000000000001
56e6a66af6ed900006a5867c,learner,Midwest,United States,no,13 or older,1,0,andalusian_mismatch_declarative-broad-focus_El-bebe-comia-muy-bien.wav,castilian,mismatch,declarative-broad-focus,El bebe comia muy bien,39,0,0,1,2.719,1.6,1.1189999999999998
56e6a66af6ed900006a5867c,learner,Midwest,United States,no,13 or older,1,0,andalusian_match_interrogative-partial-wh_Cuando-leia-el-libro.wav,mexican,match,interrogative-partial-wh,Cuando leia el libro,40,1,1,1,3.053,1.03,2.0229999999999997
56e6a66af6ed900006a5867c,learner,Midwest,United States,no,13 or older,1,0,andalusian_mismatch_declarative-narrow-focus_Mi-tia-odia-la-lluvia.wav,chilean,mismatch,declarative-narrow-focus,Mi tia odia la lluvia,41,0,0,1,2.634,1.44,1.194
56e6a66af6ed900006a5867c,learner,Midwest,United States,no,13 or older,1,0,andalusian_mismatch_interrogative-total-yn_El-bebe-comia-muy-bien.wav,chilean,mismatch,interrogative-total-yn,El bebe comia muy bien,42,1,1,1,2.568,1.42,1.1480000000000001
56e6a66af6ed900006a5867c,learner,Midwest,United States,no,13 or older,1,0,andalusian_match_declarative-broad-focus_Ana-lleva-el-abrigo.wav,peruvian,match,declarative-broad-focus,Ana lleva el abrigo,43,0,0,1,2.751,1.33,1.4209999999999998
56e6a66af6ed900006a5867c,learner,Midwest,United States,no,13 or older,1,0,andalusian_mismatch_declarative-broad-focus_La-nina-lava-el-plato.wav,cuban,mismatch,declarative-broad-focus,La nina lava el plato,44,0,0,1,2.084,1.22,0.8640000000000001
56e6a66af6ed900006a5867c,learner,Midwest,United States,no,13 or older,1,0,andalusian_match_declarative-narrow-focus_Manuela-vende-el-carro.wav,mexican,match,declarative-narrow-focus,Manuela vende el carro,45,0,0,1,2.236,1.21,1.0260000000000002
56e6a66af6ed900006a5867c,learner,Midwest,United States,no,13 or older,1,0,andalusian_mismatch_declarative-broad-focus_El-hombre-mira-la-luna.wav,andalusian,mismatch,declarative-broad-focus,El hombre mira la luna,46,0,0,1,2.434,1.25,1.1840000000000002
56e6a66af6ed900006a5867c,learner,Midwest,United States,no,13 or older,1,0,andalusian_mismatch_declarative-narrow-focus_El-hombre-mira-la-luna.wav,peruvian,mismatch,declarative-narrow-focus,El hombre mira la luna,47,0,0,1,2.623,1.43,1.1930000000000003
56e6a66af6ed900006a5867c,learner,Midwest,United States,no,13 or older,1,0,andalusian_match_interrogative-partial-wh_Por-que-ama-la-navidad.wav,chilean,match,interrogative-partial-wh,Por que ama la navidad,48,1,1,1,1.873,1.19,0.683
56e6a66af6ed900006a5867c,learner,Midwest,United States,no,13 or older,1,0,andalusian_mismatch_interrogative-partial-wh_Por-que-oia-el-rio.wav,andalusian,mismatch,interrogative-partial-wh,Por que oia el rio,49,1,0,0,2.373,1.27,1.1030000000000002
56e6a66af6ed900006a5867c,learner,Midwest,United States,no,13 or older,1,0,andalusian_match_declarative-broad-focus_Mariano-habla-del-tiempo.wav,cuban,match,declarative-broad-focus,Mariano habla del tiempo,50,0,0,1,2.553,1.46,1.093
56e6a66af6ed900006a5867c,learner,Midwest,United States,no,13 or older,1,0,andalusian_match_declarative-broad-focus_Daniel-iba-a-Bolivia.wav,argentine,match,declarative-broad-focus,Daniel iba a Bolivia,51,0,1,0,2.385,1.35,1.0349999999999997
56e6a66af6ed900006a5867c,learner,Midwest,United States,no,13 or older,1,0,andalusian_mismatch_declarative-narrow-focus_El-nino-oye-el-rio.wav,andalusian,mismatch,declarative-narrow-focus,El nino oye el rio,52,0,0,1,2.97,1.26,1.7100000000000002
56e6a66af6ed900006a5867c,learner,Midwest,United States,no,13 or older,1,0,andalusian_mismatch_interrogative-partial-wh_Por-que-desayuna-muy-bien.wav,cuban,mismatch,interrogative-partial-wh,Por que desayuna muy bien,53,1,0,0,2.217,1.36,0.857
56e6a66af6ed900006a5867c,learner,Midwest,United States,no,13 or older,1,0,andalusian_match_declarative-broad-focus_Marta-abre-el-regalo.wav,puertorican,match,declarative-broad-focus,Marta abre el regalo,54,0,1,0,2.851,1.18,1.671
56e6a66af6ed900006a5867c,learner,Midwest,United States,no,13 or older,1,0,andalusian_match_declarative-broad-focus_Manuela-vende-el-carro.wav,argentine,match,declarative-broad-focus,Manuela vende el carro,55,0,0,1,2.153,1.38,0.7730000000000001
56e6a66af6ed900006a5867c,learner,Midwest,United States,no,13 or older,1,0,andalusian_mismatch_interrogative-partial-wh_Cuando-comia-la-fruta.wav,peruvian,mismatch,interrogative-partial-wh,Cuando comia la fruta,56,1,1,1,3.344,1.54,1.8039999999999998
56e6a66af6ed900006a5867c,learner,Midwest,United States,no,13 or older,1,0,andalusian_match_interrogative-total-yn_Marta-abre-el-regalo.wav,cuban,match,interrogative-total-yn,Marta abre el regalo,57,1,0,0,7.155,1.25,5.905
56e6a66af6ed900006a5867c,learner,Midwest,United States,no,13 or older,1,0,andalusian_match_interrogative-total-yn_David-leia-el-libro.wav,andalusian,match,interrogative-total-yn,David leia el libro,58,1,0,0,2.526,1.25,1.2759999999999998
56e6a66af6ed900006a5867c,learner,Midwest,United States,no,13 or older,1,0,andalusian_match_interrogative-partial-wh_Cuando-vendia-el-carro.wav,cuban,match,interrogative-partial-wh,Cuando vendia el carro,59,1,1,1,2.674,1.16,1.514
56e6a66af6ed900006a5867c,learner,Midwest,United States,no,13 or older,1,0,andalusian_match_interrogative-partial-wh_Cuando-lleva-el-abrigo.wav,andalusian,match,interrogative-partial-wh,Cuando lleva el abrigo,60,1,1,1,1.939,1.21,0.7290000000000001
56e6a66af6ed900006a5867c,learner,Midwest,United States,no,13 or older,1,0,andalusian_match_interrogative-total-yn_Maria-bebe-el-vino.wav,mexican,match,interrogative-total-yn,Maria bebe el vino,61,1,1,1,2.3,1.18,1.1199999999999999
56e6a66af6ed900006a5867c,learner,Midwest,United States,no,13 or older,1,0,andalusian_mismatch_declarative-broad-focus_Mi-madre-come-la-fruta.wav,castilian,mismatch,declarative-broad-focus,Mi madre come la fruta,62,0,0,1,2.551,1.49,1.0610000000000002
56e6a66af6ed900006a5867c,learner,Midwest,United States,no,13 or older,1,0,andalusian_match_declarative-narrow-focus_David-leia-el-libro.wav,puertorican,match,declarative-narrow-focus,David leia el libro,63,0,0,1,2.56,1.05,1.51
5727aecae386b9000f4000cd,learner,South,I am not familiar with Spanish,no,NA,1,0,andalusian_mismatch_declarative-broad-focus_Mi-novio-viene-del-lago.wav,argentine,mismatch,declarative-broad-focus,Mi novio viene del lago,0,0,0,1,2.86563,1.68,1.18563
5727aecae386b9000f4000cd,learner,South,I am not familiar with Spanish,no,NA,1,0,andalusian_match_interrogative-partial-wh_Por-que-hablaba-del-agua.wav,argentine,match,interrogative-partial-wh,Por que hablaba del agua,1,1,0,0,1.615955,1.36,0.25595499999999993
5727aecae386b9000f4000cd,learner,South,I am not familiar with Spanish,no,NA,1,0,andalusian_match_declarative-broad-focus_Mariano-habla-del-tiempo.wav,argentine,match,declarative-broad-focus,Mariano habla del tiempo,2,0,0,1,1.567125,1.28,0.2871250000000001
5727aecae386b9000f4000cd,learner,South,I am not familiar with Spanish,no,NA,1,0,andalusian_match_interrogative-total-yn_Manuela-vende-el-carro.wav,castilian,match,interrogative-total-yn,Manuela vende el carro,3,1,1,1,1.820765,1.49,0.330765
5727aecae386b9000f4000cd,learner,South,I am not familiar with Spanish,no,NA,1,0,andalusian_match_interrogative-partial-wh_Por-que-abre-el-regalo.wav,peruvian,match,interrogative-partial-wh,Por que abre el regalo,4,1,1,1,1.972475,1.53,0.44247499999999995
5727aecae386b9000f4000cd,learner,South,I am not familiar with Spanish,no,NA,1,0,andalusian_match_declarative-narrow-focus_Emilio-ama-la-marcha.wav,castilian,match,declarative-narrow-focus,Emilio ama la marcha,5,0,0,1,1.83201,1.36,0.4720099999999998
5727aecae386b9000f4000cd,learner,South,I am not familiar with Spanish,no,NA,1,0,andalusian_match_interrogative-partial-wh_Por-que-iba-a-Bolivia.wav,peruvian,match,interrogative-partial-wh,Por que iba a Bolivia,6,1,0,0,1.65015,1.29,0.36014999999999997
5727aecae386b9000f4000cd,learner,South,I am not familiar with Spanish,no,NA,1,0,andalusian_mismatch_declarative-broad-focus_Mi-madre-come-la-fruta.wav,mexican,mismatch,declarative-broad-focus,Mi madre come la fruta,7,0,0,1,1.916765,1.26,0.656765
5727aecae386b9000f4000cd,learner,South,I am not familiar with Spanish,no,NA,1,0,andalusian_match_interrogative-partial-wh_Cuando-leia-el-libro.wav,puertorican,match,interrogative-partial-wh,Cuando leia el libro,8,1,1,1,1.5668,1.01,0.5568
5727aecae386b9000f4000cd,learner,South,I am not familiar with Spanish,no,NA,1,0,andalusian_mismatch_declarative-narrow-focus_La-maestra-vive-en-Paris.wav,mexican,mismatch,declarative-narrow-focus,La maestra vive en Paris,9,0,0,1,1.568285,1.23,0.33828499999999995
5727aecae386b9000f4000cd,learner,South,I am not familiar with Spanish,no,NA,1,0,andalusian_mismatch_declarative-narrow-focus_Mi-madre-come-la-fruta.wav,castilian,mismatch,declarative-narrow-focus,Mi madre come la fruta,10,0,0,1,1.783495,1.49,0.29349500000000006
5727aecae386b9000f4000cd,learner,South,I am not familiar with Spanish,no,NA,1,0,andalusian_match_interrogative-partial-wh_Por-que-ama-la-navidad.wav,castilian,match,interrogative-partial-wh,Por que ama la navidad,11,1,1,1,1.676115,1.3,0.376115
5727aecae386b9000f4000cd,learner,South,I am not familiar with Spanish,no,NA,1,0,andalusian_mismatch_interrogative-total-yn_La-maestra-vive-en-Paris.wav,argentine,mismatch,interrogative-total-yn,La maestra vive en Paris,12,1,1,1,1.710765,1.56,0.15076500000000004
5727aecae386b9000f4000cd,learner,South,I am not familiar with Spanish,no,NA,1,0,andalusian_mismatch_declarative-broad-focus_El-bebe-comia-muy-bien.wav,argentine,mismatch,declarative-broad-focus,El bebe comia muy bien,13,0,0,1,1.907835,1.51,0.39783499999999994
5727aecae386b9000f4000cd,learner,South,I am not familiar with Spanish,no,NA,1,0,andalusian_mismatch_declarative-narrow-focus_El-hombre-mira-la-luna.wav,puertorican,mismatch,declarative-narrow-focus,El hombre mira la luna,14,0,0,1,1.388825,1.13,0.2588250000000001
5727aecae386b9000f4000cd,learner,South,I am not familiar with Spanish,no,NA,1,0,andalusian_match_interrogative-partial-wh_Cuando-lleva-el-abrigo.wav,andalusian,match,interrogative-partial-wh,Cuando lleva el abrigo,15,1,0,0,1.4765,1.21,0.26649999999999996
5727aecae386b9000f4000cd,learner,South,I am not familiar with Spanish,no,NA,1,0,andalusian_match_declarative-broad-focus_David-leia-el-libro.wav,andalusian,match,declarative-broad-focus,David leia el libro,16,0,0,1,1.62289,1.43,0.19289
5727aecae386b9000f4000cd,learner,South,I am not familiar with Spanish,no,NA,1,0,andalusian_mismatch_interrogative-total-yn_El-bebe-comia-muy-bien.wav,peruvian,mismatch,interrogative-total-yn,El bebe comia muy bien,17,1,1,1,1.96242,1.68,0.2824200000000001
5727aecae386b9000f4000cd,learner,South,I am not familiar with Spanish,no,NA,1,0,andalusian_mismatch_interrogative-total-yn_Mi-tia-odia-la-lluvia.wav,castilian,mismatch,interrogative-total-yn,Mi tia odia la lluvia,18,1,1,1,1.70556,1.46,0.24556
5727aecae386b9000f4000cd,learner,South,I am not familiar with Spanish,no,NA,1,0,andalusian_mismatch_interrogative-total-yn_El-nino-oye-el-rio.wav,peruvian,mismatch,interrogative-total-yn,El nino oye el rio,19,1,1,1,1.604345,1.45,0.15434499999999995
5727aecae386b9000f4000cd,learner,South,I am not familiar with Spanish,no,NA,1,0,andalusian_mismatch_interrogative-partial-wh_Cuando-lavaba-el-plato.wav,puertorican,mismatch,interrogative-partial-wh,Cuando lavaba el plato,20,1,0,0,1.7514,1.22,0.5314000000000001
5727aecae386b9000f4000cd,learner,South,I am not familiar with Spanish,no,NA,1,0,andalusian_mismatch_interrogative-partial-wh_Por-que-odiaba-la-lluvia.wav,andalusian,mismatch,interrogative-partial-wh,Por que odiaba la lluvia,21,1,0,0,1.52577,1.31,0.21577000000000002
5727aecae386b9000f4000cd,learner,South,I am not familiar with Spanish,no,NA,1,0,andalusian_match_declarative-narrow-focus_Manuela-vende-el-carro.wav,castilian,match,declarative-narrow-focus,Manuela vende el carro,22,0,0,1,1.641705,1.44,0.20170500000000002
5727aecae386b9000f4000cd,learner,South,I am not familiar with Spanish,no,NA,1,0,andalusian_match_declarative-narrow-focus_Ana-lleva-el-abrigo.wav,peruvian,match,declarative-narrow-focus,Ana lleva el abrigo,23,0,0,1,1.599775,1.32,0.2797749999999999
5727aecae386b9000f4000cd,learner,South,I am not familiar with Spanish,no,NA,1,0,andalusian_match_interrogative-total-yn_Daniel-iba-a-Bolivia.wav,puertorican,match,interrogative-total-yn,Daniel iba a Bolivia,24,1,0,0,1.44236,1.14,0.3023600000000002
5727aecae386b9000f4000cd,learner,South,I am not familiar with Spanish,no,NA,1,0,andalusian_mismatch_interrogative-partial-wh_Cuando-comia-la-fruta.wav,castilian,mismatch,interrogative-partial-wh,Cuando comia la fruta,25,1,1,1,1.62658,1.4,0.22658
5727aecae386b9000f4000cd,learner,South,I am not familiar with Spanish,no,NA,1,0,andalusian_match_declarative-broad-focus_Ana-lleva-el-abrigo.wav,mexican,match,declarative-broad-focus,Ana lleva el abrigo,26,0,0,1,1.433935,1.09,0.3439349999999999
5727aecae386b9000f4000cd,learner,South,I am not familiar with Spanish,no,NA,1,0,andalusian_match_interrogative-total-yn_Ana-lleva-el-abrigo.wav,argentine,match,interrogative-total-yn,Ana lleva el abrigo,27,1,0,0,1.792325,1.34,0.45232499999999987
5727aecae386b9000f4000cd,learner,South,I am not familiar with Spanish,no,NA,1,0,andalusian_mismatch_declarative-broad-focus_El-hombre-mira-la-luna.wav,peruvian,mismatch,declarative-broad-focus,El hombre mira la luna,28,0,0,1,1.607575,1.35,0.2575749999999999
5727aecae386b9000f4000cd,learner,South,I am not familiar with Spanish,no,NA,1,0,andalusian_match_interrogative-partial-wh_Cuando-vendia-el-carro.wav,chilean,match,interrogative-partial-wh,Cuando vendia el carro,29,1,1,1,1.76176,1.32,0.44175999999999993
5727aecae386b9000f4000cd,learner,South,I am not familiar with Spanish,no,NA,1,0,andalusian_mismatch_declarative-narrow-focus_La-nina-lava-el-plato.wav,cuban,mismatch,declarative-narrow-focus,La nina lava el plato,30,0,0,1,1.61273,1.16,0.4527300000000001
5727aecae386b9000f4000cd,learner,South,I am not familiar with Spanish,no,NA,1,0,andalusian_match_interrogative-total-yn_Emilio-ama-la-marcha.wav,mexican,match,interrogative-total-yn,Emilio ama la marcha,31,1,1,1,1.784545,1.23,0.5545450000000001
5727aecae386b9000f4000cd,learner,South,I am not familiar with Spanish,no,NA,1,0,andalusian_mismatch_interrogative-total-yn_El-hombre-mira-la-luna.wav,chilean,mismatch,interrogative-total-yn,El hombre mira la luna,32,1,1,1,1.43281,1.18,0.25281
5727aecae386b9000f4000cd,learner,South,I am not familiar with Spanish,no,NA,1,0,andalusian_match_declarative-broad-focus_Manuela-vende-el-carro.wav,mexican,match,declarative-broad-focus,Manuela vende el carro,33,0,0,1,1.50296,1.15,0.35296000000000016
5727aecae386b9000f4000cd,learner,South,I am not familiar with Spanish,no,NA,1,0,andalusian_match_interrogative-partial-wh_Cuando-bebia-el-vino.wav,cuban,match,interrogative-partial-wh,Cuando bebia el vino,34,1,0,0,1.47457,1.12,0.35456999999999983
5727aecae386b9000f4000cd,learner,South,I am not familiar with Spanish,no,NA,1,0,andalusian_match_declarative-narrow-focus_Mariano-habla-del-tiempo.wav,andalusian,match,declarative-narrow-focus,Mariano habla del tiempo,35,0,0,1,1.98081,1.64,0.34081000000000006
5727aecae386b9000f4000cd,learner,South,I am not familiar with Spanish,no,NA,1,0,andalusian_match_declarative-narrow-focus_Maria-bebe-el-vino.wav,puertorican,match,declarative-narrow-focus,Maria bebe el vino,36,0,0,1,1.56722,1.2,0.3672200000000001
5727aecae386b9000f4000cd,learner,South,I am not familiar with Spanish,no,NA,1,0,andalusian_mismatch_declarative-narrow-focus_El-nino-oye-el-rio.wav,andalusian,mismatch,declarative-narrow-focus,El nino oye el rio,37,0,0,1,1.69958,1.26,0.4395800000000001
5727aecae386b9000f4000cd,learner,South,I am not familiar with Spanish,no,NA,1,0,andalusian_match_declarative-broad-focus_Marta-abre-el-regalo.wav,peruvian,match,declarative-broad-focus,Marta abre el regalo,38,0,0,1,1.684275,1.46,0.224275
5727aecae386b9000f4000cd,learner,South,I am not familiar with Spanish,no,NA,1,0,andalusian_match_declarative-broad-focus_Emilio-ama-la-marcha.wav,andalusian,match,declarative-broad-focus,Emilio ama la marcha,39,0,0,1,1.50027,1.27,0.23026999999999997
5727aecae386b9000f4000cd,learner,South,I am not familiar with Spanish,no,NA,1,0,andalusian_mismatch_interrogative-partial-wh_Por-que-oia-el-rio.wav,peruvian,mismatch,interrogative-partial-wh,Por que oia el rio,40,1,0,0,1.68199,1.4,0.2819900000000002
5727aecae386b9000f4000cd,learner,South,I am not familiar with Spanish,no,NA,1,0,andalusian_mismatch_interrogative-total-yn_Mi-novio-viene-del-lago.wav,chilean,mismatch,interrogative-total-yn,Mi novio viene del lago,41,1,1,1,1.583865,1.29,0.29386500000000004
5727aecae386b9000f4000cd,learner,South,I am not familiar with Spanish,no,NA,1,0,andalusian_mismatch_declarative-broad-focus_La-maestra-vive-en-Paris.wav,cuban,mismatch,declarative-broad-focus,La maestra vive en Paris,42,0,0,1,1.671865,1.29,0.3818649999999999
5727aecae386b9000f4000cd,learner,South,I am not familiar with Spanish,no,NA,1,0,andalusian_mismatch_declarative-narrow-focus_El-bebe-comia-muy-bien.wav,mexican,mismatch,declarative-narrow-focus,El bebe comia muy bien,43,0,0,1,1.54397,1.14,0.40397000000000016
5727aecae386b9000f4000cd,learner,South,I am not familiar with Spanish,no,NA,1,0,andalusian_mismatch_interrogative-partial-wh_Por-que-venia-del-lago.wav,puertorican,mismatch,interrogative-partial-wh,Por que venia del lago,44,1,0,0,1.51804,1.13,0.38804000000000016
5727aecae386b9000f4000cd,learner,South,I am not familiar with Spanish,no,NA,1,0,andalusian_mismatch_interrogative-partial-wh_Por-que-desayuna-muy-bien.wav,cuban,mismatch,interrogative-partial-wh,Por que desayuna muy bien,45,1,0,0,1.54026,1.36,0.18025999999999986
5727aecae386b9000f4000cd,learner,South,I am not familiar with Spanish,no,NA,1,0,andalusian_match_declarative-broad-focus_Daniel-iba-a-Bolivia.wav,puertorican,match,declarative-broad-focus,Daniel iba a Bolivia,46,0,0,1,1.723335,1.2,0.5233350000000001
5727aecae386b9000f4000cd,learner,South,I am not familiar with Spanish,no,NA,1,0,andalusian_mismatch_interrogative-total-yn_Mi-madre-come-la-fruta.wav,argentine,mismatch,interrogative-total-yn,Mi madre come la fruta,47,1,0,0,3.269,1.5,1.7690000000000001
5727aecae386b9000f4000cd,learner,South,I am not familiar with Spanish,no,NA,1,0,andalusian_mismatch_interrogative-total-yn_La-nina-lava-el-plato.wav,mexican,mismatch,interrogative-total-yn,La nina lava el plato,48,1,1,1,2.22452,1.25,0.97452
5727aecae386b9000f4000cd,learner,South,I am not familiar with Spanish,no,NA,1,0,andalusian_match_declarative-narrow-focus_Marta-abre-el-regalo.wav,peruvian,match,declarative-narrow-focus,Marta abre el regalo,49,0,0,1,1.91766,1.37,0.5476599999999998
5727aecae386b9000f4000cd,learner,South,I am not familiar with Spanish,no,NA,1,0,andalusian_mismatch_interrogative-partial-wh_Por-que-vivia-en-Paris.wav,cuban,mismatch,interrogative-partial-wh,Por que vivia en Paris,50,1,0,0,1.640885,1.09,0.5508849999999998
5727aecae386b9000f4000cd,learner,South,I am not familiar with Spanish,no,NA,1,0,andalusian_match_interrogative-total-yn_Marta-abre-el-regalo.wav,cuban,match,interrogative-total-yn,Marta abre el regalo,51,1,0,0,2.03454,1.25,0.7845399999999998
5727aecae386b9000f4000cd,learner,South,I am not familiar with Spanish,no,NA,1,0,andalusian_mismatch_declarative-narrow-focus_Mi-novio-viene-del-lago.wav,andalusian,mismatch,declarative-narrow-focus,Mi novio viene del lago,52,0,0,1,1.60252,1.21,0.39252
5727aecae386b9000f4000cd,learner,South,I am not familiar with Spanish,no,NA,1,0,andalusian_match_declarative-narrow-focus_David-leia-el-libro.wav,chilean,match,declarative-narrow-focus,David leia el libro,53,0,0,1,1.41975,1.13,0.2897500000000002
5727aecae386b9000f4000cd,learner,South,I am not familiar with Spanish,no,NA,1,0,andalusian_match_declarative-narrow-focus_Daniel-iba-a-Bolivia.wav,mexican,match,declarative-narrow-focus,Daniel iba a Bolivia,54,0,0,1,1.726425,1.1,0.626425
5727aecae386b9000f4000cd,learner,South,I am not familiar with Spanish,no,NA,1,0,andalusian_mismatch_declarative-broad-focus_Mi-tia-odia-la-lluvia.wav,puertorican,mismatch,declarative-broad-focus,Mi tia odia la lluvia,55,0,0,1,1.6832,1.23,0.45320000000000005
5727aecae386b9000f4000cd,learner,South,I am not familiar with Spanish,no,NA,1,0,andalusian_mismatch_interrogative-partial-wh_Cuando-miraba-la-luna.wav,chilean,mismatch,interrogative-partial-wh,Cuando miraba la luna,56,1,1,1,1.53847,1.25,0.28847
5727aecae386b9000f4000cd,learner,South,I am not familiar with Spanish,no,NA,1,0,andalusian_mismatch_declarative-broad-focus_La-nina-lava-el-plato.wav,chilean,mismatch,declarative-broad-focus,La nina lava el plato,57,0,0,1,1.476795,1.06,0.416795
5727aecae386b9000f4000cd,learner,South,I am not familiar with Spanish,no,NA,1,0,andalusian_match_interrogative-total-yn_Mariano-habla-del-tiempo.wav,chilean,match,interrogative-total-yn,Mariano habla del tiempo,58,1,0,0,2.25088,1.37,0.8808799999999999
5727aecae386b9000f4000cd,learner,South,I am not familiar with Spanish,no,NA,1,0,andalusian_match_interrogative-total-yn_David-leia-el-libro.wav,puertorican,match,interrogative-total-yn,David leia el libro,59,1,0,0,1.841675,0.99,0.851675
5727aecae386b9000f4000cd,learner,South,I am not familiar with Spanish,no,NA,1,0,andalusian_mismatch_declarative-narrow-focus_Mi-tia-odia-la-lluvia.wav,mexican,mismatch,declarative-narrow-focus,Mi tia odia la lluvia,60,0,0,1,1.53566,1.21,0.32566000000000006
5727aecae386b9000f4000cd,learner,South,I am not familiar with Spanish,no,NA,1,0,andalusian_mismatch_declarative-broad-focus_El-nino-oye-el-rio.wav,castilian,mismatch,declarative-broad-focus,El nino oye el rio,61,0,0,1,1.755255,1.41,0.3452550000000001
5727aecae386b9000f4000cd,learner,South,I am not familiar with Spanish,no,NA,1,0,andalusian_match_interrogative-total-yn_Maria-bebe-el-vino.wav,castilian,match,interrogative-total-yn,Maria bebe el vino,62,1,1,1,1.667525,1.31,0.35752499999999987
5727aecae386b9000f4000cd,learner,South,I am not familiar with Spanish,no,NA,1,0,andalusian_match_declarative-broad-focus_Maria-bebe-el-vino.wav,puertorican,match,declarative-broad-focus,Maria bebe el vino,63,0,0,1,1.6735,1.13,0.5435000000000001
57901207c9abeb0001af353e,learner,Midwest,I am not familiar with Spanish,no,NA,1,0,andalusian_match_interrogative-partial-wh_Cuando-leia-el-libro.wav,mexican,match,interrogative-partial-wh,Cuando leia el libro,0,1,0,0,2.808,1.03,1.7779999999999998
57901207c9abeb0001af353e,learner,Midwest,I am not familiar with Spanish,no,NA,1,0,andalusian_match_declarative-narrow-focus_Ana-lleva-el-abrigo.wav,argentine,match,declarative-narrow-focus,Ana lleva el abrigo,1,0,0,1,2.551,1.16,1.3910000000000002
57901207c9abeb0001af353e,learner,Midwest,I am not familiar with Spanish,no,NA,1,0,andalusian_match_declarative-broad-focus_Emilio-ama-la-marcha.wav,andalusian,match,declarative-broad-focus,Emilio ama la marcha,2,0,0,1,2.165,1.27,0.895
57901207c9abeb0001af353e,learner,Midwest,I am not familiar with Spanish,no,NA,1,0,andalusian_match_interrogative-total-yn_Mariano-habla-del-tiempo.wav,cuban,match,interrogative-total-yn,Mariano habla del tiempo,3,1,0,0,2.386,1.44,0.9460000000000002
57901207c9abeb0001af353e,learner,Midwest,I am not familiar with Spanish,no,NA,1,0,andalusian_mismatch_declarative-broad-focus_Mi-madre-come-la-fruta.wav,argentine,mismatch,declarative-broad-focus,Mi madre come la fruta,4,0,0,1,2.306,1.52,0.786
57901207c9abeb0001af353e,learner,Midwest,I am not familiar with Spanish,no,NA,1,0,andalusian_match_declarative-broad-focus_Manuela-vende-el-carro.wav,argentine,match,declarative-broad-focus,Manuela vende el carro,5,0,1,0,3.468,1.38,2.088
57901207c9abeb0001af353e,learner,Midwest,I am not familiar with Spanish,no,NA,1,0,andalusian_mismatch_declarative-narrow-focus_El-hombre-mira-la-luna.wav,andalusian,mismatch,declarative-narrow-focus,El hombre mira la luna,6,0,1,0,2.04,1.33,0.71
57901207c9abeb0001af353e,learner,Midwest,I am not familiar with Spanish,no,NA,1,0,andalusian_mismatch_interrogative-partial-wh_Por-que-odiaba-la-lluvia.wav,peruvian,mismatch,interrogative-partial-wh,Por que odiaba la lluvia,7,1,0,0,2.57,1.52,1.0499999999999998
57901207c9abeb0001af353e,learner,Midwest,I am not familiar with Spanish,no,NA,1,0,andalusian_match_interrogative-total-yn_Daniel-iba-a-Bolivia.wav,chilean,match,interrogative-total-yn,Daniel iba a Bolivia,8,1,1,1,1.685,1.06,0.625
57901207c9abeb0001af353e,learner,Midwest,I am not familiar with Spanish,no,NA,1,0,andalusian_mismatch_interrogative-partial-wh_Por-que-vivia-en-Paris.wav,cuban,mismatch,interrogative-partial-wh,Por que vivia en Paris,9,1,0,0,2.102,1.09,1.0119999999999998
57901207c9abeb0001af353e,learner,Midwest,I am not familiar with Spanish,no,NA,1,0,andalusian_match_interrogative-total-yn_Manuela-vende-el-carro.wav,argentine,match,interrogative-total-yn,Manuela vende el carro,10,1,1,1,1.987,1.45,0.5370000000000001
57901207c9abeb0001af353e,learner,Midwest,I am not familiar with Spanish,no,NA,1,0,andalusian_mismatch_interrogative-total-yn_Mi-tia-odia-la-lluvia.wav,chilean,mismatch,interrogative-total-yn,Mi tia odia la lluvia,11,1,1,1,1.985,1.37,0.615
57901207c9abeb0001af353e,learner,Midwest,I am not familiar with Spanish,no,NA,1,0,andalusian_mismatch_declarative-broad-focus_Mi-novio-viene-del-lago.wav,mexican,mismatch,declarative-broad-focus,Mi novio viene del lago,12,0,0,1,1.951,1.14,0.8110000000000002
57901207c9abeb0001af353e,learner,Midwest,I am not familiar with Spanish,no,NA,1,0,andalusian_mismatch_declarative-narrow-focus_La-maestra-vive-en-Paris.wav,peruvian,mismatch,declarative-narrow-focus,La maestra vive en Paris,13,0,0,1,2.535,1.74,0.7950000000000002
57901207c9abeb0001af353e,learner,Midwest,I am not familiar with Spanish,no,NA,1,0,andalusian_match_declarative-narrow-focus_David-leia-el-libro.wav,argentine,match,declarative-narrow-focus,David leia el libro,14,0,0,1,2.085,1.13,0.9550000000000001
57901207c9abeb0001af353e,learner,Midwest,I am not familiar with Spanish,no,NA,1,0,andalusian_match_declarative-broad-focus_Mariano-habla-del-tiempo.wav,chilean,match,declarative-broad-focus,Mariano habla del tiempo,15,0,0,1,2.668,1.47,1.1980000000000002
57901207c9abeb0001af353e,learner,Midwest,I am not familiar with Spanish,no,NA,1,0,andalusian_match_declarative-narrow-focus_Daniel-iba-a-Bolivia.wav,mexican,match,declarative-narrow-focus,Daniel iba a Bolivia,16,0,0,1,1.919,1.1,0.819
57901207c9abeb0001af353e,learner,Midwest,I am not familiar with Spanish,no,NA,1,0,andalusian_mismatch_declarative-narrow-focus_El-bebe-comia-muy-bien.wav,castilian,mismatch,declarative-narrow-focus,El bebe comia muy bien,17,0,0,1,2.133,1.48,0.653
57901207c9abeb0001af353e,learner,Midwest,I am not familiar with Spanish,no,NA,1,0,andalusian_mismatch_interrogative-total-yn_Mi-madre-come-la-fruta.wav,puertorican,mismatch,interrogative-total-yn,Mi madre come la fruta,18,1,0,0,2.281,1.25,1.0310000000000001
57901207c9abeb0001af353e,learner,Midwest,I am not familiar with Spanish,no,NA,1,0,andalusian_mismatch_declarative-broad-focus_Mi-tia-odia-la-lluvia.wav,puertorican,mismatch,declarative-broad-focus,Mi tia odia la lluvia,19,0,0,1,1.95,1.23,0.72
57901207c9abeb0001af353e,learner,Midwest,I am not familiar with Spanish,no,NA,1,0,andalusian_mismatch_declarative-broad-focus_El-bebe-comia-muy-bien.wav,mexican,mismatch,declarative-broad-focus,El bebe comia muy bien,20,0,1,0,2.233,1.19,1.0430000000000001
57901207c9abeb0001af353e,learner,Midwest,I am not familiar with Spanish,no,NA,1,0,andalusian_match_interrogative-partial-wh_Cuando-vendia-el-carro.wav,puertorican,match,interrogative-partial-wh,Cuando vendia el carro,21,1,1,1,1.768,1.15,0.6180000000000001
57901207c9abeb0001af353e,learner,Midwest,I am not familiar with Spanish,no,NA,1,0,andalusian_mismatch_declarative-narrow-focus_Mi-madre-come-la-fruta.wav,puertorican,mismatch,declarative-narrow-focus,Mi madre come la fruta,22,0,0,1,2.25,1.29,0.96
57901207c9abeb0001af353e,learner,Midwest,I am not familiar with Spanish,no,NA,1,0,andalusian_mismatch_interrogative-total-yn_El-bebe-comia-muy-bien.wav,argentine,mismatch,interrogative-total-yn,El bebe comia muy bien,23,1,1,1,1.771,1.29,0.48099999999999987
57901207c9abeb0001af353e,learner,Midwest,I am not familiar with Spanish,no,NA,1,0,andalusian_mismatch_interrogative-total-yn_El-nino-oye-el-rio.wav,peruvian,mismatch,interrogative-total-yn,El nino oye el rio,24,1,1,1,1.97,1.45,0.52
57901207c9abeb0001af353e,learner,Midwest,I am not familiar with Spanish,no,NA,1,0,andalusian_mismatch_interrogative-partial-wh_Por-que-desayuna-muy-bien.wav,chilean,mismatch,interrogative-partial-wh,Por que desayuna muy bien,25,1,1,1,2.067,1.45,0.6170000000000002
57901207c9abeb0001af353e,learner,Midwest,I am not familiar with Spanish,no,NA,1,0,andalusian_mismatch_declarative-narrow-focus_Mi-novio-viene-del-lago.wav,cuban,mismatch,declarative-narrow-focus,Mi novio viene del lago,26,0,0,1,1.918,1.32,0.5979999999999999
57901207c9abeb0001af353e,learner,Midwest,I am not familiar with Spanish,no,NA,1,0,andalusian_mismatch_declarative-narrow-focus_La-nina-lava-el-plato.wav,andalusian,mismatch,declarative-narrow-focus,La nina lava el plato,27,0,0,1,2.2,1.41,0.7900000000000003
57901207c9abeb0001af353e,learner,Midwest,I am not familiar with Spanish,no,NA,1,0,andalusian_match_interrogative-total-yn_Ana-lleva-el-abrigo.wav,peruvian,match,interrogative-total-yn,Ana lleva el abrigo,28,1,1,1,2.286,1.39,0.8960000000000001
57901207c9abeb0001af353e,learner,Midwest,I am not familiar with Spanish,no,NA,1,0,andalusian_mismatch_declarative-broad-focus_El-hombre-mira-la-luna.wav,andalusian,mismatch,declarative-broad-focus,El hombre mira la luna,29,0,1,0,2.284,1.25,1.0339999999999998
57901207c9abeb0001af353e,learner,Midwest,I am not familiar with Spanish,no,NA,1,0,andalusian_mismatch_interrogative-total-yn_El-hombre-mira-la-luna.wav,andalusian,mismatch,interrogative-total-yn,El hombre mira la luna,30,1,1,1,2.65,1.32,1.3299999999999998
57901207c9abeb0001af353e,learner,Midwest,I am not familiar with Spanish,no,NA,1,0,andalusian_match_interrogative-partial-wh_Por-que-iba-a-Bolivia.wav,andalusian,match,interrogative-partial-wh,Por que iba a Bolivia,31,1,0,0,2.068,1.23,0.8380000000000001
57901207c9abeb0001af353e,learner,Midwest,I am not familiar with Spanish,no,NA,1,0,andalusian_match_interrogative-total-yn_David-leia-el-libro.wav,mexican,match,interrogative-total-yn,David leia el libro,32,1,1,1,2.068,1.21,0.8580000000000001
57901207c9abeb0001af353e,learner,Midwest,I am not familiar with Spanish,no,NA,1,0,andalusian_mismatch_declarative-narrow-focus_El-nino-oye-el-rio.wav,castilian,mismatch,declarative-narrow-focus,El nino oye el rio,33,0,0,1,2.502,1.39,1.1119999999999999
57901207c9abeb0001af353e,learner,Midwest,I am not familiar with Spanish,no,NA,1,0,andalusian_match_interrogative-total-yn_Marta-abre-el-regalo.wav,cuban,match,interrogative-total-yn,Marta abre el regalo,34,1,0,0,2.133,1.25,0.883
57901207c9abeb0001af353e,learner,Midwest,I am not familiar with Spanish,no,NA,1,0,andalusian_mismatch_interrogative-total-yn_Mi-novio-viene-del-lago.wav,peruvian,mismatch,interrogative-total-yn,Mi novio viene del lago,35,1,1,1,2.202,1.63,0.5720000000000001
57901207c9abeb0001af353e,learner,Midwest,I am not familiar with Spanish,no,NA,1,0,andalusian_mismatch_declarative-broad-focus_El-nino-oye-el-rio.wav,puertorican,mismatch,declarative-broad-focus,El nino oye el rio,36,0,0,1,2.816,1.14,1.676
57901207c9abeb0001af353e,learner,Midwest,I am not familiar with Spanish,no,NA,1,0,andalusian_mismatch_interrogative-partial-wh_Por-que-venia-del-lago.wav,castilian,mismatch,interrogative-partial-wh,Por que venia del lago,37,1,1,1,2.249,1.45,0.7990000000000002
57901207c9abeb0001af353e,learner,Midwest,I am not familiar with Spanish,no,NA,1,0,andalusian_match_interrogative-partial-wh_Cuando-lleva-el-abrigo.wav,cuban,match,interrogative-partial-wh,Cuando lleva el abrigo,38,1,0,0,2.382,1.18,1.2020000000000002
57901207c9abeb0001af353e,learner,Midwest,I am not familiar with Spanish,no,NA,1,0,andalusian_mismatch_interrogative-partial-wh_Cuando-comia-la-fruta.wav,argentine,mismatch,interrogative-partial-wh,Cuando comia la fruta,39,1,0,0,2.321,1.32,1.0010000000000001
57901207c9abeb0001af353e,learner,Midwest,I am not familiar with Spanish,no,NA,1,0,andalusian_match_declarative-broad-focus_Ana-lleva-el-abrigo.wav,castilian,match,declarative-broad-focus,Ana lleva el abrigo,40,0,0,1,4.256,1.26,2.9960000000000004
57901207c9abeb0001af353e,learner,Midwest,I am not familiar with Spanish,no,NA,1,0,andalusian_mismatch_interrogative-total-yn_La-nina-lava-el-plato.wav,castilian,mismatch,interrogative-total-yn,La nina lava el plato,41,1,1,1,2.106,1.45,0.6559999999999999
57901207c9abeb0001af353e,learner,Midwest,I am not familiar with Spanish,no,NA,1,0,andalusian_match_interrogative-total-yn_Emilio-ama-la-marcha.wav,cuban,match,interrogative-total-yn,Emilio ama la marcha,42,1,0,0,1.876,1.28,0.5959999999999999
57901207c9abeb0001af353e,learner,Midwest,I am not familiar with Spanish,no,NA,1,0,andalusian_match_declarative-narrow-focus_Manuela-vende-el-carro.wav,cuban,match,declarative-narrow-focus,Manuela vende el carro,43,0,0,1,2.249,1.38,0.8690000000000002
57901207c9abeb0001af353e,learner,Midwest,I am not familiar with Spanish,no,NA,1,0,andalusian_mismatch_interrogative-partial-wh_Cuando-miraba-la-luna.wav,castilian,mismatch,interrogative-partial-wh,Cuando miraba la luna,44,1,1,1,1.835,1.32,0.5149999999999999
57901207c9abeb0001af353e,learner,Midwest,I am not familiar with Spanish,no,NA,1,0,andalusian_match_declarative-broad-focus_David-leia-el-libro.wav,castilian,match,declarative-broad-focus,David leia el libro,45,0,0,1,2.206,1.48,0.726
57901207c9abeb0001af353e,learner,Midwest,I am not familiar with Spanish,no,NA,1,0,andalusian_mismatch_declarative-broad-focus_La-nina-lava-el-plato.wav,andalusian,mismatch,declarative-broad-focus,La nina lava el plato,46,0,0,1,2.419,1.21,1.209
57901207c9abeb0001af353e,learner,Midwest,I am not familiar with Spanish,no,NA,1,0,andalusian_match_interrogative-partial-wh_Por-que-ama-la-navidad.wav,peruvian,match,interrogative-partial-wh,Por que ama la navidad,47,1,1,1,2.898,1.54,1.358
57901207c9abeb0001af353e,learner,Midwest,I am not familiar with Spanish,no,NA,1,0,andalusian_match_interrogative-partial-wh_Por-que-hablaba-del-agua.wav,argentine,match,interrogative-partial-wh,Por que hablaba del agua,48,1,0,0,3.838,1.36,2.4779999999999998
57901207c9abeb0001af353e,learner,Midwest,I am not familiar with Spanish,no,NA,1,0,andalusian_match_declarative-broad-focus_Maria-bebe-el-vino.wav,chilean,match,declarative-broad-focus,Maria bebe el vino,49,0,0,1,2.051,0.97,1.0810000000000002
57901207c9abeb0001af353e,learner,Midwest,I am not familiar with Spanish,no,NA,1,0,andalusian_match_interrogative-partial-wh_Cuando-bebia-el-vino.wav,argentine,match,interrogative-partial-wh,Cuando bebia el vino,50,1,0,0,2.18,1.14,1.0400000000000003
57901207c9abeb0001af353e,learner,Midwest,I am not familiar with Spanish,no,NA,1,0,andalusian_match_declarative-broad-focus_Marta-abre-el-regalo.wav,peruvian,match,declarative-broad-focus,Marta abre el regalo,51,0,0,1,2.817,1.46,1.3570000000000002
57901207c9abeb0001af353e,learner,Midwest,I am not familiar with Spanish,no,NA,1,0,andalusian_mismatch_declarative-broad-focus_La-maestra-vive-en-Paris.wav,peruvian,mismatch,declarative-broad-focus,La maestra vive en Paris,52,0,0,1,2.638,1.75,0.8879999999999999
57901207c9abeb0001af353e,learner,Midwest,I am not familiar with Spanish,no,NA,1,0,andalusian_mismatch_interrogative-total-yn_La-maestra-vive-en-Paris.wav,castilian,mismatch,interrogative-total-yn,La maestra vive en Paris,53,1,1,1,2.439,1.76,0.679
57901207c9abeb0001af353e,learner,Midwest,I am not familiar with Spanish,no,NA,1,0,andalusian_match_declarative-narrow-focus_Emilio-ama-la-marcha.wav,argentine,match,declarative-narrow-focus,Emilio ama la marcha,54,0,0,1,2.386,1.38,1.0060000000000002
57901207c9abeb0001af353e,learner,Midwest,I am not familiar with Spanish,no,NA,1,0,andalusian_match_declarative-narrow-focus_Marta-abre-el-regalo.wav,puertorican,match,declarative-narrow-focus,Marta abre el regalo,55,0,0,1,3.317,1.16,2.157
57901207c9abeb0001af353e,learner,Midwest,I am not familiar with Spanish,no,NA,1,0,andalusian_mismatch_interrogative-partial-wh_Cuando-lavaba-el-plato.wav,cuban,mismatch,interrogative-partial-wh,Cuando lavaba el plato,56,1,1,1,3.758,1.22,2.5380000000000003
57901207c9abeb0001af353e,learner,Midwest,I am not familiar with Spanish,no,NA,1,0,andalusian_match_interrogative-partial-wh_Por-que-abre-el-regalo.wav,andalusian,match,interrogative-partial-wh,Por que abre el regalo,57,1,0,0,2.086,1.21,0.8759999999999999
57901207c9abeb0001af353e,learner,Midwest,I am not familiar with Spanish,no,NA,1,0,andalusian_mismatch_interrogative-partial-wh_Por-que-oia-el-rio.wav,argentine,mismatch,interrogative-partial-wh,Por que oia el rio,58,1,1,1,3.638,1.2,2.4379999999999997
57901207c9abeb0001af353e,learner,Midwest,I am not familiar with Spanish,no,NA,1,0,andalusian_match_interrogative-total-yn_Maria-bebe-el-vino.wav,mexican,match,interrogative-total-yn,Maria bebe el vino,59,1,1,1,2.338,1.18,1.1580000000000001
57901207c9abeb0001af353e,learner,Midwest,I am not familiar with Spanish,no,NA,1,0,andalusian_match_declarative-narrow-focus_Maria-bebe-el-vino.wav,argentine,match,declarative-narrow-focus,Maria bebe el vino,60,0,1,0,3.068,1.22,1.848
57901207c9abeb0001af353e,learner,Midwest,I am not familiar with Spanish,no,NA,1,0,andalusian_match_declarative-broad-focus_Daniel-iba-a-Bolivia.wav,peruvian,match,declarative-broad-focus,Daniel iba a Bolivia,61,0,0,1,2.6,1.44,1.1600000000000001
57901207c9abeb0001af353e,learner,Midwest,I am not familiar with Spanish,no,NA,1,0,andalusian_mismatch_declarative-narrow-focus_Mi-tia-odia-la-lluvia.wav,chilean,mismatch,declarative-narrow-focus,Mi tia odia la lluvia,62,0,0,1,2.805,1.44,1.3650000000000002
57901207c9abeb0001af353e,learner,Midwest,I am not familiar with Spanish,no,NA,1,0,andalusian_match_declarative-narrow-focus_Mariano-habla-del-tiempo.wav,peruvian,match,declarative-narrow-focus,Mariano habla del tiempo,63,0,0,1,2.634,1.6,1.0339999999999998
588e3172bc9f190001487eb8,learner,Midwest,Spain,no,13 or older,1,0,andalusian_mismatch_interrogative-total-yn_La-nina-lava-el-plato.wav,andalusian,mismatch,interrogative-total-yn,La nina lava el plato,0,1,1,1,1.534605,1.41,0.12460500000000008
588e3172bc9f190001487eb8,learner,Midwest,Spain,no,13 or older,1,0,andalusian_mismatch_interrogative-partial-wh_Por-que-desayuna-muy-bien.wav,cuban,mismatch,interrogative-partial-wh,Por que desayuna muy bien,1,1,1,1,1.674055,1.36,0.314055
588e3172bc9f190001487eb8,learner,Midwest,Spain,no,13 or older,1,0,andalusian_match_declarative-narrow-focus_Mariano-habla-del-tiempo.wav,mexican,match,declarative-narrow-focus,Mariano habla del tiempo,2,0,0,1,1.50688,1.22,0.28688
588e3172bc9f190001487eb8,learner,Midwest,Spain,no,13 or older,1,0,andalusian_mismatch_declarative-broad-focus_La-nina-lava-el-plato.wav,cuban,mismatch,declarative-broad-focus,La nina lava el plato,3,0,0,1,1.67158,1.22,0.4515800000000001
588e3172bc9f190001487eb8,learner,Midwest,Spain,no,13 or older,1,0,andalusian_mismatch_interrogative-partial-wh_Por-que-oia-el-rio.wav,peruvian,mismatch,interrogative-partial-wh,Por que oia el rio,4,1,1,1,1.50036,1.4,0.10036
588e3172bc9f190001487eb8,learner,Midwest,Spain,no,13 or older,1,0,andalusian_mismatch_interrogative-partial-wh_Cuando-comia-la-fruta.wav,chilean,mismatch,interrogative-partial-wh,Cuando comia la fruta,5,1,1,1,1.392695,1.24,0.15269500000000003
588e3172bc9f190001487eb8,learner,Midwest,Spain,no,13 or older,1,0,andalusian_match_declarative-narrow-focus_Manuela-vende-el-carro.wav,puertorican,match,declarative-narrow-focus,Manuela vende el carro,6,0,0,1,2.103385,1.22,0.8833849999999999
588e3172bc9f190001487eb8,learner,Midwest,Spain,no,13 or older,1,0,andalusian_match_declarative-broad-focus_Maria-bebe-el-vino.wav,chilean,match,declarative-broad-focus,Maria bebe el vino,7,0,0,1,1.23732,0.97,0.26732
588e3172bc9f190001487eb8,learner,Midwest,Spain,no,13 or older,1,0,andalusian_match_declarative-broad-focus_Daniel-iba-a-Bolivia.wav,mexican,match,declarative-broad-focus,Daniel iba a Bolivia,8,0,0,1,1.98858,1.19,0.7985800000000001
588e3172bc9f190001487eb8,learner,Midwest,Spain,no,13 or older,1,0,andalusian_match_interrogative-total-yn_Emilio-ama-la-marcha.wav,andalusian,match,interrogative-total-yn,Emilio ama la marcha,9,1,1,1,1.45451,1.38,0.07451000000000008
588e3172bc9f190001487eb8,learner,Midwest,Spain,no,13 or older,1,0,andalusian_match_interrogative-partial-wh_Por-que-ama-la-navidad.wav,cuban,match,interrogative-partial-wh,Por que ama la navidad,10,1,1,1,1.43586,1.17,0.26586
588e3172bc9f190001487eb8,learner,Midwest,Spain,no,13 or older,1,0,andalusian_match_interrogative-partial-wh_Cuando-leia-el-libro.wav,cuban,match,interrogative-partial-wh,Cuando leia el libro,11,1,0,0,1.735705,1.18,0.5557050000000001
588e3172bc9f190001487eb8,learner,Midwest,Spain,no,13 or older,1,0,andalusian_mismatch_interrogative-partial-wh_Por-que-venia-del-lago.wav,castilian,mismatch,interrogative-partial-wh,Por que venia del lago,12,1,1,1,1.92193,1.45,0.47192999999999996
588e3172bc9f190001487eb8,learner,Midwest,Spain,no,13 or older,1,0,andalusian_match_declarative-broad-focus_Mariano-habla-del-tiempo.wav,puertorican,match,declarative-broad-focus,Mariano habla del tiempo,13,0,0,1,1.32018,1.29,0.030179999999999874
588e3172bc9f190001487eb8,learner,Midwest,Spain,no,13 or older,1,0,andalusian_mismatch_interrogative-partial-wh_Cuando-lavaba-el-plato.wav,puertorican,mismatch,interrogative-partial-wh,Cuando lavaba el plato,14,1,0,0,1.485755,1.22,0.26575499999999996
588e3172bc9f190001487eb8,learner,Midwest,Spain,no,13 or older,1,0,andalusian_mismatch_interrogative-total-yn_El-bebe-comia-muy-bien.wav,argentine,mismatch,interrogative-total-yn,El bebe comia muy bien,15,1,1,1,1.386265,1.29,0.09626500000000004
588e3172bc9f190001487eb8,learner,Midwest,Spain,no,13 or older,1,0,andalusian_match_declarative-narrow-focus_Marta-abre-el-regalo.wav,chilean,match,declarative-narrow-focus,Marta abre el regalo,16,0,1,0,1.79399,1.1,0.6939899999999999
