participant,group,eng_variety,spn_variety,have_ln,aoa,check_pass,check_fails,speaker_variety,condition,sentence_type,sentence,trial_n,correct_response,response,is_correct,rt_raw,sentence_dur,rt_adj,eq_score,lextale_avg,lextale_tra
558aab19fdf99b65685f0142,learner,Midwest,I am not familiar with Spanish,no,NA,1,0,castilian,mismatch,interrogative-partial-wh,Por que oia el rio,0,1,1,1,1.924375,1.36,0.5643749999999998,65,50,0
558aab19fdf99b65685f0142,learner,Midwest,I am not familiar with Spanish,no,NA,1,0,andalusian,match,declarative-narrow-focus,Emilio ama la marcha,1,0,0,1,1.88941,1.48,0.40941000000000005,65,50,0
558aab19fdf99b65685f0142,learner,Midwest,I am not familiar with Spanish,no,NA,1,0,cuban,match,declarative-broad-focus,David leia el libro,2,0,0,1,1.74388,1.41,0.3338800000000002,65,50,0
558aab19fdf99b65685f0142,learner,Midwest,I am not familiar with Spanish,no,NA,1,0,peruvian,mismatch,declarative-narrow-focus,El nino oye el rio,3,0,1,0,3.530835,1.57,1.960835,65,50,0
558aab19fdf99b65685f0142,learner,Midwest,I am not familiar with Spanish,no,NA,1,0,peruvian,mismatch,interrogative-total-yn,La nina lava el plato,4,1,1,1,2.10788,1.43,0.6778800000000003,65,50,0
558aab19fdf99b65685f0142,learner,Midwest,I am not familiar with Spanish,no,NA,1,0,chilean,mismatch,interrogative-total-yn,Mi novio viene del lago,5,1,1,1,2.475525,1.29,1.1855250000000002,65,50,0
558aab19fdf99b65685f0142,learner,Midwest,I am not familiar with Spanish,no,NA,1,0,cuban,match,interrogative-total-yn,Marta abre el regalo,6,1,0,0,1.590045,1.25,0.34004499999999993,65,50,0
558aab19fdf99b65685f0142,learner,Midwest,I am not familiar with Spanish,no,NA,1,0,peruvian,mismatch,declarative-narrow-focus,El bebe comia muy bien,7,0,0,1,1.980685,1.67,0.3106850000000001,65,50,0
558aab19fdf99b65685f0142,learner,Midwest,I am not familiar with Spanish,no,NA,1,0,castilian,match,interrogative-partial-wh,Por que hablaba del agua,8,1,1,1,1.734055,1.46,0.27405499999999994,65,50,0
558aab19fdf99b65685f0142,learner,Midwest,I am not familiar with Spanish,no,NA,1,0,castilian,mismatch,interrogative-total-yn,El nino oye el rio,9,1,1,1,2.19867,1.46,0.7386699999999999,65,50,0
558aab19fdf99b65685f0142,learner,Midwest,I am not familiar with Spanish,no,NA,1,0,mexican,match,declarative-broad-focus,Manuela vende el carro,10,0,0,1,1.46901,1.15,0.31901,65,50,0
558aab19fdf99b65685f0142,learner,Midwest,I am not familiar with Spanish,no,NA,1,0,chilean,mismatch,declarative-narrow-focus,Mi novio viene del lago,11,0,0,1,1.690205,1.37,0.32020499999999985,65,50,0
558aab19fdf99b65685f0142,learner,Midwest,I am not familiar with Spanish,no,NA,1,0,castilian,match,declarative-broad-focus,Marta abre el regalo,12,0,0,1,1.82169,1.4,0.4216900000000001,65,50,0
558aab19fdf99b65685f0142,learner,Midwest,I am not familiar with Spanish,no,NA,1,0,castilian,mismatch,interrogative-partial-wh,Cuando comia la fruta,13,1,1,1,1.657415,1.4,0.25741500000000017,65,50,0
558aab19fdf99b65685f0142,learner,Midwest,I am not familiar with Spanish,no,NA,1,0,castilian,mismatch,declarative-broad-focus,El bebe comia muy bien,14,0,0,1,1.958155,1.6,0.358155,65,50,0
558aab19fdf99b65685f0142,learner,Midwest,I am not familiar with Spanish,no,NA,1,0,chilean,match,interrogative-total-yn,Maria bebe el vino,15,1,0,0,2.048865,1.2,0.8488650000000002,65,50,0
558aab19fdf99b65685f0142,learner,Midwest,I am not familiar with Spanish,no,NA,1,0,castilian,mismatch,declarative-narrow-focus,El hombre mira la luna,16,0,0,1,1.92387,1.28,0.6438699999999999,65,50,0
558aab19fdf99b65685f0142,learner,Midwest,I am not familiar with Spanish,no,NA,1,0,peruvian,mismatch,declarative-narrow-focus,Mi tia odia la lluvia,17,0,0,1,1.831205,1.61,0.22120499999999987,65,50,0
558aab19fdf99b65685f0142,learner,Midwest,I am not familiar with Spanish,no,NA,1,0,peruvian,match,declarative-narrow-focus,David leia el libro,18,0,0,1,1.763415,1.35,0.41341499999999987,65,50,0
558aab19fdf99b65685f0142,learner,Midwest,I am not familiar with Spanish,no,NA,1,0,chilean,mismatch,interrogative-partial-wh,Por que odiaba la lluvia,19,1,1,1,1.857155,1.47,0.3871549999999999,65,50,0
558aab19fdf99b65685f0142,learner,Midwest,I am not familiar with Spanish,no,NA,1,0,mexican,mismatch,interrogative-total-yn,Mi tia odia la lluvia,20,1,1,1,1.71088,1.19,0.52088,65,50,0
558aab19fdf99b65685f0142,learner,Midwest,I am not familiar with Spanish,no,NA,1,0,argentine,mismatch,declarative-narrow-focus,La nina lava el plato,21,0,0,1,1.579005,1.26,0.319005,65,50,0
558aab19fdf99b65685f0142,learner,Midwest,I am not familiar with Spanish,no,NA,1,0,castilian,mismatch,interrogative-partial-wh,Cuando lavaba el plato,22,1,1,1,1.48186,1.33,0.15185999999999988,65,50,0
558aab19fdf99b65685f0142,learner,Midwest,I am not familiar with Spanish,no,NA,1,0,peruvian,match,declarative-broad-focus,Daniel iba a Bolivia,23,0,0,1,1.60714,1.44,0.16714000000000007,65,50,0
558aab19fdf99b65685f0142,learner,Midwest,I am not familiar with Spanish,no,NA,1,0,chilean,mismatch,interrogative-partial-wh,Por que venia del lago,24,1,1,1,1.52402,1.33,0.19401999999999986,65,50,0
558aab19fdf99b65685f0142,learner,Midwest,I am not familiar with Spanish,no,NA,1,0,argentine,match,interrogative-total-yn,Daniel iba a Bolivia,25,1,0,0,1.62944,1.41,0.21944000000000008,65,50,0
558aab19fdf99b65685f0142,learner,Midwest,I am not familiar with Spanish,no,NA,1,0,argentine,match,interrogative-partial-wh,Cuando leia el libro,26,1,1,1,1.584075,1.09,0.4940749999999998,65,50,0
558aab19fdf99b65685f0142,learner,Midwest,I am not familiar with Spanish,no,NA,1,0,chilean,match,declarative-narrow-focus,Maria bebe el vino,27,0,0,1,1.275555,0.98,0.295555,65,50,0
558aab19fdf99b65685f0142,learner,Midwest,I am not familiar with Spanish,no,NA,1,0,andalusian,mismatch,interrogative-total-yn,El bebe comia muy bien,28,1,0,0,2.211515,1.33,0.8815149999999998,65,50,0
558aab19fdf99b65685f0142,learner,Midwest,I am not familiar with Spanish,no,NA,1,0,argentine,mismatch,interrogative-partial-wh,Por que desayuna muy bien,29,1,1,1,1.54946,1.34,0.20945999999999998,65,50,0
558aab19fdf99b65685f0142,learner,Midwest,I am not familiar with Spanish,no,NA,1,0,argentine,mismatch,declarative-broad-focus,Mi novio viene del lago,30,0,0,1,1.884995,1.68,0.20499500000000004,65,50,0
558aab19fdf99b65685f0142,learner,Midwest,I am not familiar with Spanish,no,NA,1,0,cuban,match,interrogative-partial-wh,Por que ama la navidad,31,1,0,0,2.008655,1.17,0.8386550000000002,65,50,0
558aab19fdf99b65685f0142,learner,Midwest,I am not familiar with Spanish,no,NA,1,0,peruvian,mismatch,declarative-narrow-focus,Mi madre come la fruta,32,0,0,1,1.80779,1.63,0.17779000000000011,65,50,0
558aab19fdf99b65685f0142,learner,Midwest,I am not familiar with Spanish,no,NA,1,0,puertorican,mismatch,declarative-broad-focus,Mi tia odia la lluvia,33,0,0,1,1.65619,1.23,0.42619000000000007,65,50,0
558aab19fdf99b65685f0142,learner,Midwest,I am not familiar with Spanish,no,NA,1,0,cuban,match,declarative-narrow-focus,Daniel iba a Bolivia,34,0,0,1,2.19235,1.29,0.9023499999999998,65,50,0
558aab19fdf99b65685f0142,learner,Midwest,I am not familiar with Spanish,no,NA,1,0,peruvian,match,interrogative-total-yn,Mariano habla del tiempo,35,1,1,1,2.00889,1.67,0.33889000000000014,65,50,0
558aab19fdf99b65685f0142,learner,Midwest,I am not familiar with Spanish,no,NA,1,0,puertorican,mismatch,declarative-broad-focus,La nina lava el plato,36,0,0,1,1.5761,1.14,0.43610000000000015,65,50,0
558aab19fdf99b65685f0142,learner,Midwest,I am not familiar with Spanish,no,NA,1,0,puertorican,match,declarative-broad-focus,Emilio ama la marcha,37,0,0,1,1.589455,1.24,0.34945500000000007,65,50,0
558aab19fdf99b65685f0142,learner,Midwest,I am not familiar with Spanish,no,NA,1,0,peruvian,match,interrogative-partial-wh,Cuando bebia el vino,38,1,1,1,1.62593,1.37,0.25593,65,50,0
558aab19fdf99b65685f0142,learner,Midwest,I am not familiar with Spanish,no,NA,1,0,peruvian,match,declarative-narrow-focus,Manuela vende el carro,39,0,0,1,1.824865,1.55,0.2748649999999999,65,50,0
558aab19fdf99b65685f0142,learner,Midwest,I am not familiar with Spanish,no,NA,1,0,cuban,match,declarative-broad-focus,Maria bebe el vino,40,0,0,1,1.449045,1.25,0.19904499999999992,65,50,0
558aab19fdf99b65685f0142,learner,Midwest,I am not familiar with Spanish,no,NA,1,0,castilian,match,declarative-narrow-focus,Ana lleva el abrigo,41,0,0,1,1.42161,1.22,0.20161000000000007,65,50,0
558aab19fdf99b65685f0142,learner,Midwest,I am not familiar with Spanish,no,NA,1,0,cuban,match,interrogative-partial-wh,Por que abre el regalo,42,1,1,1,1.419325,1.22,0.19932499999999997,65,50,0
558aab19fdf99b65685f0142,learner,Midwest,I am not familiar with Spanish,no,NA,1,0,andalusian,mismatch,declarative-narrow-focus,La maestra vive en Paris,43,0,0,1,1.389085,1.19,0.19908499999999996,65,50,0
558aab19fdf99b65685f0142,learner,Midwest,I am not familiar with Spanish,no,NA,1,0,mexican,match,declarative-narrow-focus,Mariano habla del tiempo,44,0,0,1,1.85781,1.22,0.63781,65,50,0
558aab19fdf99b65685f0142,learner,Midwest,I am not familiar with Spanish,no,NA,1,0,puertorican,match,interrogative-partial-wh,Cuando lleva el abrigo,45,1,1,1,1.36532,1.11,0.25532,65,50,0
558aab19fdf99b65685f0142,learner,Midwest,I am not familiar with Spanish,no,NA,1,0,cuban,match,interrogative-total-yn,Emilio ama la marcha,46,1,0,0,1.42277,1.28,0.14277000000000006,65,50,0
558aab19fdf99b65685f0142,learner,Midwest,I am not familiar with Spanish,no,NA,1,0,andalusian,mismatch,declarative-broad-focus,El hombre mira la luna,47,0,1,0,1.918055,1.25,0.6680550000000001,65,50,0
558aab19fdf99b65685f0142,learner,Midwest,I am not familiar with Spanish,no,NA,1,0,peruvian,mismatch,interrogative-partial-wh,Por que vivia en Paris,48,1,0,0,1.733645,1.55,0.18364500000000006,65,50,0
558aab19fdf99b65685f0142,learner,Midwest,I am not familiar with Spanish,no,NA,1,0,peruvian,match,interrogative-total-yn,Ana lleva el abrigo,49,1,1,1,1.76801,1.39,0.3780100000000002,65,50,0
558aab19fdf99b65685f0142,learner,Midwest,I am not familiar with Spanish,no,NA,1,0,andalusian,match,interrogative-total-yn,David leia el libro,50,1,1,1,2.44389,1.25,1.1938900000000001,65,50,0
558aab19fdf99b65685f0142,learner,Midwest,I am not familiar with Spanish,no,NA,1,0,argentine,match,interrogative-partial-wh,Por que iba a Bolivia,51,1,1,1,1.734875,1.11,0.6248749999999998,65,50,0
558aab19fdf99b65685f0142,learner,Midwest,I am not familiar with Spanish,no,NA,1,0,puertorican,mismatch,interrogative-total-yn,El hombre mira la luna,52,1,1,1,2.75756,1.22,1.5375599999999998,65,50,0
558aab19fdf99b65685f0142,learner,Midwest,I am not familiar with Spanish,no,NA,1,0,mexican,match,interrogative-partial-wh,Cuando vendia el carro,53,1,0,0,1.9261,1.02,0.9060999999999999,65,50,0
558aab19fdf99b65685f0142,learner,Midwest,I am not familiar with Spanish,no,NA,1,0,castilian,mismatch,interrogative-total-yn,Mi madre come la fruta,54,1,0,0,1.756795,1.51,0.2467950000000001,65,50,0
558aab19fdf99b65685f0142,learner,Midwest,I am not familiar with Spanish,no,NA,1,0,cuban,mismatch,declarative-broad-focus,La maestra vive en Paris,55,0,0,1,1.94217,1.29,0.6521699999999999,65,50,0
558aab19fdf99b65685f0142,learner,Midwest,I am not familiar with Spanish,no,NA,1,0,castilian,match,interrogative-total-yn,Manuela vende el carro,56,1,1,1,2.759975,1.49,1.2699749999999999,65,50,0
558aab19fdf99b65685f0142,learner,Midwest,I am not familiar with Spanish,no,NA,1,0,castilian,match,declarative-narrow-focus,Marta abre el regalo,57,0,0,1,1.732645,1.4,0.3326450000000001,65,50,0
558aab19fdf99b65685f0142,learner,Midwest,I am not familiar with Spanish,no,NA,1,0,mexican,match,declarative-broad-focus,Mariano habla del tiempo,58,0,0,1,1.59032,1.22,0.37032,65,50,0
558aab19fdf99b65685f0142,learner,Midwest,I am not familiar with Spanish,no,NA,1,0,puertorican,mismatch,interrogative-partial-wh,Cuando miraba la luna,59,1,1,1,1.41656,1.1,0.31655999999999995,65,50,0
558aab19fdf99b65685f0142,learner,Midwest,I am not familiar with Spanish,no,NA,1,0,argentine,mismatch,interrogative-total-yn,La maestra vive en Paris,60,1,1,1,2.671765,1.56,1.1117650000000001,65,50,0
558aab19fdf99b65685f0142,learner,Midwest,I am not familiar with Spanish,no,NA,1,0,argentine,mismatch,declarative-broad-focus,Mi madre come la fruta,61,0,0,1,1.73079,1.52,0.21079000000000003,65,50,0
558aab19fdf99b65685f0142,learner,Midwest,I am not familiar with Spanish,no,NA,1,0,peruvian,mismatch,declarative-broad-focus,El nino oye el rio,62,0,0,1,1.94119,1.54,0.40118999999999994,65,50,0
558aab19fdf99b65685f0142,learner,Midwest,I am not familiar with Spanish,no,NA,1,0,cuban,match,declarative-broad-focus,Ana lleva el abrigo,63,0,0,1,1.60658,1.24,0.3665799999999999,65,50,0
55ce148b34e9060012e56279,learner,Northeast,I am not familiar with Spanish,no,NA,1,0,chilean,match,interrogative-total-yn,Ana lleva el abrigo,0,1,1,1,1.909305,1.24,0.669305,31,45,-6
55ce148b34e9060012e56279,learner,Northeast,I am not familiar with Spanish,no,NA,1,0,argentine,match,interrogative-total-yn,Daniel iba a Bolivia,1,1,1,1,1.54768,1.41,0.13768000000000002,31,45,-6
55ce148b34e9060012e56279,learner,Northeast,I am not familiar with Spanish,no,NA,1,0,peruvian,match,declarative-broad-focus,Emilio ama la marcha,2,0,0,1,1.807885,1.44,0.367885,31,45,-6
55ce148b34e9060012e56279,learner,Northeast,I am not familiar with Spanish,no,NA,1,0,castilian,mismatch,declarative-narrow-focus,Mi novio viene del lago,3,0,0,1,1.89406,1.49,0.4040600000000001,31,45,-6
55ce148b34e9060012e56279,learner,Northeast,I am not familiar with Spanish,no,NA,1,0,castilian,match,declarative-broad-focus,Maria bebe el vino,4,0,0,1,1.78883,1.36,0.4288299999999998,31,45,-6
55ce148b34e9060012e56279,learner,Northeast,I am not familiar with Spanish,no,NA,1,0,andalusian,mismatch,interrogative-partial-wh,Por que desayuna muy bien,5,1,1,1,1.72274,1.4,0.32274,31,45,-6
55ce148b34e9060012e56279,learner,Northeast,I am not familiar with Spanish,no,NA,1,0,chilean,mismatch,declarative-narrow-focus,La nina lava el plato,6,0,1,0,1.9066,1.22,0.6866000000000001,31,45,-6
55ce148b34e9060012e56279,learner,Northeast,I am not familiar with Spanish,no,NA,1,0,cuban,mismatch,declarative-broad-focus,El hombre mira la luna,7,0,0,1,1.79782,1.13,0.6678200000000001,31,45,-6
55ce148b34e9060012e56279,learner,Northeast,I am not familiar with Spanish,no,NA,1,0,argentine,match,declarative-narrow-focus,Emilio ama la marcha,8,0,0,1,1.611765,1.38,0.231765,31,45,-6
55ce148b34e9060012e56279,learner,Northeast,I am not familiar with Spanish,no,NA,1,0,andalusian,match,declarative-narrow-focus,Maria bebe el vino,9,0,1,0,2.177445,1.34,0.837445,31,45,-6
55ce148b34e9060012e56279,learner,Northeast,I am not familiar with Spanish,no,NA,1,0,argentine,match,declarative-broad-focus,Manuela vende el carro,10,0,0,1,1.72811,1.38,0.34811000000000014,31,45,-6
55ce148b34e9060012e56279,learner,Northeast,I am not familiar with Spanish,no,NA,1,0,andalusian,match,interrogative-partial-wh,Por que ama la navidad,11,1,0,0,1.777635,1.33,0.447635,31,45,-6
55ce148b34e9060012e56279,learner,Northeast,I am not familiar with Spanish,no,NA,1,0,puertorican,mismatch,interrogative-partial-wh,Por que odiaba la lluvia,12,1,0,0,1.840255,1.18,0.660255,31,45,-6
55ce148b34e9060012e56279,learner,Northeast,I am not familiar with Spanish,no,NA,1,0,cuban,match,interrogative-total-yn,Mariano habla del tiempo,13,1,0,0,2.58124,1.44,1.1412400000000003,31,45,-6
55ce148b34e9060012e56279,learner,Northeast,I am not familiar with Spanish,no,NA,1,0,mexican,match,interrogative-partial-wh,Cuando lleva el abrigo,14,1,1,1,1.47331,1.16,0.31331,31,45,-6
55ce148b34e9060012e56279,learner,Northeast,I am not familiar with Spanish,no,NA,1,0,peruvian,mismatch,declarative-narrow-focus,La maestra vive en Paris,15,0,0,1,2.697035,1.74,0.9570350000000001,31,45,-6
55ce148b34e9060012e56279,learner,Northeast,I am not familiar with Spanish,no,NA,1,0,argentine,match,interrogative-partial-wh,Cuando leia el libro,16,1,1,1,1.35794,1.09,0.26793999999999984,31,45,-6
55ce148b34e9060012e56279,learner,Northeast,I am not familiar with Spanish,no,NA,1,0,peruvian,mismatch,declarative-broad-focus,El nino oye el rio,17,0,0,1,1.8828,1.54,0.3428,31,45,-6
55ce148b34e9060012e56279,learner,Northeast,I am not familiar with Spanish,no,NA,1,0,puertorican,match,interrogative-partial-wh,Por que iba a Bolivia,18,1,1,1,1.33359,1.02,0.31359000000000004,31,45,-6
55ce148b34e9060012e56279,learner,Northeast,I am not familiar with Spanish,no,NA,1,0,peruvian,mismatch,declarative-broad-focus,La maestra vive en Paris,19,0,0,1,2.125685,1.75,0.3756849999999998,31,45,-6
55ce148b34e9060012e56279,learner,Northeast,I am not familiar with Spanish,no,NA,1,0,castilian,match,interrogative-total-yn,David leia el libro,20,1,1,1,2.164775,1.43,0.7347750000000002,31,45,-6
55ce148b34e9060012e56279,learner,Northeast,I am not familiar with Spanish,no,NA,1,0,chilean,match,interrogative-total-yn,Marta abre el regalo,21,1,1,1,1.6553,1.26,0.3953,31,45,-6
55ce148b34e9060012e56279,learner,Northeast,I am not familiar with Spanish,no,NA,1,0,andalusian,mismatch,interrogative-total-yn,La maestra vive en Paris,22,1,1,1,1.641,1.37,0.2709999999999999,31,45,-6
55ce148b34e9060012e56279,learner,Northeast,I am not familiar with Spanish,no,NA,1,0,argentine,match,declarative-broad-focus,David leia el libro,23,0,0,1,2.05952,1.34,0.7195199999999999,31,45,-6
55ce148b34e9060012e56279,learner,Northeast,I am not familiar with Spanish,no,NA,1,0,peruvian,mismatch,declarative-broad-focus,Mi madre come la fruta,24,0,0,1,2.129075,1.57,0.5590749999999998,31,45,-6
55ce148b34e9060012e56279,learner,Northeast,I am not familiar with Spanish,no,NA,1,0,mexican,match,declarative-narrow-focus,Daniel iba a Bolivia,25,0,0,1,1.616535,1.1,0.516535,31,45,-6
55ce148b34e9060012e56279,learner,Northeast,I am not familiar with Spanish,no,NA,1,0,puertorican,match,declarative-narrow-focus,Marta abre el regalo,26,0,0,1,1.958375,1.16,0.7983750000000001,31,45,-6
55ce148b34e9060012e56279,learner,Northeast,I am not familiar with Spanish,no,NA,1,0,cuban,match,declarative-broad-focus,Ana lleva el abrigo,27,0,0,1,1.802475,1.24,0.5624750000000001,31,45,-6
55ce148b34e9060012e56279,learner,Northeast,I am not familiar with Spanish,no,NA,1,0,chilean,match,declarative-narrow-focus,Mariano habla del tiempo,28,0,0,1,2.54788,1.75,0.7978800000000001,31,45,-6
55ce148b34e9060012e56279,learner,Northeast,I am not familiar with Spanish,no,NA,1,0,cuban,mismatch,interrogative-partial-wh,Cuando miraba la luna,29,1,1,1,2.2385,1.17,1.0685000000000002,31,45,-6
55ce148b34e9060012e56279,learner,Northeast,I am not familiar with Spanish,no,NA,1,0,cuban,mismatch,interrogative-partial-wh,Por que venia del lago,30,1,1,1,1.22774,1.04,0.18774000000000002,31,45,-6
55ce148b34e9060012e56279,learner,Northeast,I am not familiar with Spanish,no,NA,1,0,chilean,mismatch,declarative-narrow-focus,Mi madre come la fruta,31,0,0,1,1.76318,1.17,0.59318,31,45,-6
55ce148b34e9060012e56279,learner,Northeast,I am not familiar with Spanish,no,NA,1,0,peruvian,match,declarative-narrow-focus,Manuela vende el carro,32,0,0,1,1.66095,1.55,0.11094999999999988,31,45,-6
55ce148b34e9060012e56279,learner,Northeast,I am not familiar with Spanish,no,NA,1,0,castilian,match,declarative-broad-focus,Marta abre el regalo,33,0,0,1,1.853035,1.4,0.4530350000000001,31,45,-6
55ce148b34e9060012e56279,learner,Northeast,I am not familiar with Spanish,no,NA,1,0,mexican,mismatch,declarative-broad-focus,El bebe comia muy bien,34,0,0,1,2.101535,1.19,0.9115350000000002,31,45,-6
55ce148b34e9060012e56279,learner,Northeast,I am not familiar with Spanish,no,NA,1,0,cuban,mismatch,interrogative-total-yn,Mi madre come la fruta,35,1,0,0,1.877545,1.27,0.607545,31,45,-6
55ce148b34e9060012e56279,learner,Northeast,I am not familiar with Spanish,no,NA,1,0,castilian,mismatch,interrogative-total-yn,Mi tia odia la lluvia,36,1,0,0,2.432015,1.46,0.9720149999999999,31,45,-6
55ce148b34e9060012e56279,learner,Northeast,I am not familiar with Spanish,no,NA,1,0,castilian,match,interrogative-total-yn,Manuela vende el carro,37,1,0,0,1.774125,1.49,0.28412499999999996,31,45,-6
55ce148b34e9060012e56279,learner,Northeast,I am not familiar with Spanish,no,NA,1,0,peruvian,match,declarative-narrow-focus,David leia el libro,38,0,0,1,1.910265,1.35,0.560265,31,45,-6
55ce148b34e9060012e56279,learner,Northeast,I am not familiar with Spanish,no,NA,1,0,andalusian,match,interrogative-total-yn,Maria bebe el vino,39,1,1,1,1.730225,1.15,0.580225,31,45,-6
55ce148b34e9060012e56279,learner,Northeast,I am not familiar with Spanish,no,NA,1,0,chilean,match,interrogative-total-yn,Emilio ama la marcha,40,1,0,0,1.638275,1.33,0.30827499999999985,31,45,-6
55ce148b34e9060012e56279,learner,Northeast,I am not familiar with Spanish,no,NA,1,0,castilian,mismatch,interrogative-total-yn,El hombre mira la luna,41,1,1,1,1.907845,1.29,0.617845,31,45,-6
55ce148b34e9060012e56279,learner,Northeast,I am not familiar with Spanish,no,NA,1,0,castilian,mismatch,declarative-broad-focus,Mi tia odia la lluvia,42,0,0,1,1.677225,1.3,0.3772249999999999,31,45,-6
55ce148b34e9060012e56279,learner,Northeast,I am not familiar with Spanish,no,NA,1,0,chilean,match,interrogative-partial-wh,Por que abre el regalo,43,1,1,1,1.462975,1.28,0.1829749999999999,31,45,-6
55ce148b34e9060012e56279,learner,Northeast,I am not familiar with Spanish,no,NA,1,0,cuban,mismatch,interrogative-partial-wh,Cuando lavaba el plato,44,1,1,1,0.888135,1.22,-0.33186499999999997,31,45,-6
55ce148b34e9060012e56279,learner,Northeast,I am not familiar with Spanish,no,NA,1,0,peruvian,mismatch,declarative-narrow-focus,Mi tia odia la lluvia,45,0,0,1,2.2519,1.61,0.6418999999999999,31,45,-6
55ce148b34e9060012e56279,learner,Northeast,I am not familiar with Spanish,no,NA,1,0,argentine,mismatch,declarative-broad-focus,La nina lava el plato,46,0,0,1,1.516995,1.26,0.2569950000000001,31,45,-6
55ce148b34e9060012e56279,learner,Northeast,I am not familiar with Spanish,no,NA,1,0,cuban,match,declarative-narrow-focus,Ana lleva el abrigo,47,0,0,1,1.421835,1.08,0.3418349999999999,31,45,-6
55ce148b34e9060012e56279,learner,Northeast,I am not familiar with Spanish,no,NA,1,0,chilean,match,declarative-broad-focus,Daniel iba a Bolivia,48,0,0,1,1.497965,1.1,0.3979649999999999,31,45,-6
55ce148b34e9060012e56279,learner,Northeast,I am not familiar with Spanish,no,NA,1,0,puertorican,match,declarative-broad-focus,Mariano habla del tiempo,49,0,0,1,1.637755,1.29,0.34775500000000004,31,45,-6
55ce148b34e9060012e56279,learner,Northeast,I am not familiar with Spanish,no,NA,1,0,puertorican,match,interrogative-partial-wh,Cuando bebia el vino,50,1,1,1,1.99417,1.07,0.9241699999999999,31,45,-6
55ce148b34e9060012e56279,learner,Northeast,I am not familiar with Spanish,no,NA,1,0,castilian,match,interrogative-partial-wh,Por que hablaba del agua,51,1,1,1,1.37249,1.46,-0.08750999999999998,31,45,-6
55ce148b34e9060012e56279,learner,Northeast,I am not familiar with Spanish,no,NA,1,0,argentine,mismatch,declarative-narrow-focus,El bebe comia muy bien,52,0,0,1,1.491005,1.2,0.29100499999999996,31,45,-6
55ce148b34e9060012e56279,learner,Northeast,I am not familiar with Spanish,no,NA,1,0,puertorican,mismatch,declarative-broad-focus,Mi novio viene del lago,53,0,0,1,1.46156,1.22,0.24156,31,45,-6
55ce148b34e9060012e56279,learner,Northeast,I am not familiar with Spanish,no,NA,1,0,andalusian,mismatch,declarative-narrow-focus,El nino oye el rio,54,0,0,1,1.40538,1.26,0.14538000000000006,31,45,-6
55ce148b34e9060012e56279,learner,Northeast,I am not familiar with Spanish,no,NA,1,0,andalusian,mismatch,interrogative-partial-wh,Por que oia el rio,55,1,1,1,0.895285,1.27,-0.374715,31,45,-6
55ce148b34e9060012e56279,learner,Northeast,I am not familiar with Spanish,no,NA,1,0,andalusian,mismatch,interrogative-total-yn,La nina lava el plato,56,1,0,0,1.487795,1.41,0.07779500000000006,31,45,-6
55ce148b34e9060012e56279,learner,Northeast,I am not familiar with Spanish,no,NA,1,0,chilean,mismatch,interrogative-total-yn,El bebe comia muy bien,57,1,0,0,2.070905,1.42,0.6509050000000003,31,45,-6
55ce148b34e9060012e56279,learner,Northeast,I am not familiar with Spanish,no,NA,1,0,chilean,mismatch,interrogative-total-yn,Mi novio viene del lago,58,1,0,0,2.23157,1.29,0.94157,31,45,-6
55ce148b34e9060012e56279,learner,Northeast,I am not familiar with Spanish,no,NA,1,0,castilian,mismatch,interrogative-partial-wh,Por que vivia en Paris,59,1,1,1,1.927345,1.49,0.4373450000000001,31,45,-6
55ce148b34e9060012e56279,learner,Northeast,I am not familiar with Spanish,no,NA,1,0,chilean,mismatch,interrogative-partial-wh,Cuando comia la fruta,60,1,1,1,1.6067,1.24,0.3667,31,45,-6
55ce148b34e9060012e56279,learner,Northeast,I am not familiar with Spanish,no,NA,1,0,puertorican,mismatch,declarative-narrow-focus,El hombre mira la luna,61,0,0,1,2.3492,1.13,1.2192000000000003,31,45,-6
55ce148b34e9060012e56279,learner,Northeast,I am not familiar with Spanish,no,NA,1,0,andalusian,mismatch,interrogative-total-yn,El nino oye el rio,62,1,1,1,2.76299,1.52,1.2429899999999998,31,45,-6
55ce148b34e9060012e56279,learner,Northeast,I am not familiar with Spanish,no,NA,1,0,chilean,match,interrogative-partial-wh,Cuando vendia el carro,63,1,1,1,2.257855,1.32,0.9378550000000001,31,45,-6
5658000ca9872d0011e1ba26,learner,Midwest,I am not familiar with Spanish,no,NA,1,0,argentine,match,declarative-broad-focus,Emilio ama la marcha,0,0,0,1,2.093,1.38,0.7130000000000001,52,49.166666666666664,-1
5658000ca9872d0011e1ba26,learner,Midwest,I am not familiar with Spanish,no,NA,1,0,peruvian,match,declarative-broad-focus,Manuela vende el carro,1,0,0,1,2.134,1.52,0.6139999999999999,52,49.166666666666664,-1
5658000ca9872d0011e1ba26,learner,Midwest,I am not familiar with Spanish,no,NA,1,0,cuban,mismatch,declarative-broad-focus,La nina lava el plato,2,0,0,1,1.83,1.22,0.6100000000000001,52,49.166666666666664,-1
5658000ca9872d0011e1ba26,learner,Midwest,I am not familiar with Spanish,no,NA,1,0,andalusian,mismatch,interrogative-total-yn,El bebe comia muy bien,3,1,1,1,3.259,1.33,1.9289999999999998,52,49.166666666666664,-1
5658000ca9872d0011e1ba26,learner,Midwest,I am not familiar with Spanish,no,NA,1,0,cuban,mismatch,interrogative-partial-wh,Cuando comia la fruta,4,1,0,0,3.181,1.03,2.151,52,49.166666666666664,-1
5658000ca9872d0011e1ba26,learner,Midwest,I am not familiar with Spanish,no,NA,1,0,chilean,match,interrogative-total-yn,David leia el libro,5,1,1,1,3.302,1.2,2.1020000000000003,52,49.166666666666664,-1
5658000ca9872d0011e1ba26,learner,Midwest,I am not familiar with Spanish,no,NA,1,0,argentine,mismatch,declarative-broad-focus,Mi madre come la fruta,6,0,0,1,3.177,1.52,1.657,52,49.166666666666664,-1
5658000ca9872d0011e1ba26,learner,Midwest,I am not familiar with Spanish,no,NA,1,0,argentine,match,declarative-narrow-focus,Emilio ama la marcha,7,0,0,1,2.101,1.38,0.7210000000000001,52,49.166666666666664,-1
5658000ca9872d0011e1ba26,learner,Midwest,I am not familiar with Spanish,no,NA,1,0,argentine,match,interrogative-partial-wh,Cuando vendia el carro,8,1,0,0,2.451,1.11,1.341,52,49.166666666666664,-1
5658000ca9872d0011e1ba26,learner,Midwest,I am not familiar with Spanish,no,NA,1,0,mexican,mismatch,declarative-broad-focus,El hombre mira la luna,9,0,0,1,1.906,1.22,0.6859999999999999,52,49.166666666666664,-1
5658000ca9872d0011e1ba26,learner,Midwest,I am not familiar with Spanish,no,NA,1,0,andalusian,match,interrogative-partial-wh,Por que iba a Bolivia,10,1,1,1,2.411,1.23,1.181,52,49.166666666666664,-1
5658000ca9872d0011e1ba26,learner,Midwest,I am not familiar with Spanish,no,NA,1,0,chilean,mismatch,declarative-narrow-focus,Mi madre come la fruta,11,0,0,1,2.414,1.17,1.2440000000000002,52,49.166666666666664,-1
5658000ca9872d0011e1ba26,learner,Midwest,I am not familiar with Spanish,no,NA,1,0,chilean,match,declarative-narrow-focus,Ana lleva el abrigo,12,0,0,1,2.056,1.08,0.976,52,49.166666666666664,-1
5658000ca9872d0011e1ba26,learner,Midwest,I am not familiar with Spanish,no,NA,1,0,mexican,match,declarative-narrow-focus,Daniel iba a Bolivia,13,0,0,1,2.109,1.1,1.009,52,49.166666666666664,-1
5658000ca9872d0011e1ba26,learner,Midwest,I am not familiar with Spanish,no,NA,1,0,puertorican,match,interrogative-total-yn,Mariano habla del tiempo,14,1,0,0,2.631,1.27,1.3609999999999998,52,49.166666666666664,-1
5658000ca9872d0011e1ba26,learner,Midwest,I am not familiar with Spanish,no,NA,1,0,cuban,match,declarative-narrow-focus,Manuela vende el carro,15,0,0,1,1.913,1.38,0.5330000000000001,52,49.166666666666664,-1
5658000ca9872d0011e1ba26,learner,Midwest,I am not familiar with Spanish,no,NA,1,0,peruvian,match,interrogative-partial-wh,Cuando lleva el abrigo,16,1,1,1,3.704,1.39,2.314,52,49.166666666666664,-1
5658000ca9872d0011e1ba26,learner,Midwest,I am not familiar with Spanish,no,NA,1,0,castilian,mismatch,declarative-broad-focus,La maestra vive en Paris,17,0,0,1,3.819,1.6,2.219,52,49.166666666666664,-1
5658000ca9872d0011e1ba26,learner,Midwest,I am not familiar with Spanish,no,NA,1,0,chilean,mismatch,interrogative-partial-wh,Por que oia el rio,18,1,0,0,2.33,1.42,0.9100000000000001,52,49.166666666666664,-1
5658000ca9872d0011e1ba26,learner,Midwest,I am not familiar with Spanish,no,NA,1,0,mexican,match,declarative-narrow-focus,Maria bebe el vino,19,0,0,1,2.293,1.08,1.213,52,49.166666666666664,-1
5658000ca9872d0011e1ba26,learner,Midwest,I am not familiar with Spanish,no,NA,1,0,puertorican,match,declarative-broad-focus,Marta abre el regalo,20,0,0,1,2.058,1.18,0.8779999999999999,52,49.166666666666664,-1
5658000ca9872d0011e1ba26,learner,Midwest,I am not familiar with Spanish,no,NA,1,0,peruvian,match,interrogative-partial-wh,Por que ama la navidad,21,1,0,0,3.972,1.54,2.432,52,49.166666666666664,-1
5658000ca9872d0011e1ba26,learner,Midwest,I am not familiar with Spanish,no,NA,1,0,chilean,mismatch,interrogative-total-yn,Mi madre come la fruta,22,1,1,1,2.334,1.29,1.044,52,49.166666666666664,-1
5658000ca9872d0011e1ba26,learner,Midwest,I am not familiar with Spanish,no,NA,1,0,andalusian,match,interrogative-partial-wh,Cuando leia el libro,23,1,1,1,3.897,1.31,2.5869999999999997,52,49.166666666666664,-1
5658000ca9872d0011e1ba26,learner,Midwest,I am not familiar with Spanish,no,NA,1,0,chilean,match,declarative-narrow-focus,Mariano habla del tiempo,24,0,0,1,3.056,1.75,1.306,52,49.166666666666664,-1
5658000ca9872d0011e1ba26,learner,Midwest,I am not familiar with Spanish,no,NA,1,0,castilian,mismatch,interrogative-total-yn,La maestra vive en Paris,25,1,1,1,2.798,1.76,1.038,52,49.166666666666664,-1
5658000ca9872d0011e1ba26,learner,Midwest,I am not familiar with Spanish,no,NA,1,0,puertorican,match,interrogative-total-yn,Manuela vende el carro,26,1,0,0,2.385,1.16,1.2249999999999999,52,49.166666666666664,-1
5658000ca9872d0011e1ba26,learner,Midwest,I am not familiar with Spanish,no,NA,1,0,peruvian,match,declarative-narrow-focus,Marta abre el regalo,27,0,0,1,2.114,1.37,0.7439999999999998,52,49.166666666666664,-1
5658000ca9872d0011e1ba26,learner,Midwest,I am not familiar with Spanish,no,NA,1,0,cuban,match,interrogative-total-yn,Emilio ama la marcha,28,1,0,0,1.818,1.28,0.538,52,49.166666666666664,-1
5658000ca9872d0011e1ba26,learner,Midwest,I am not familiar with Spanish,no,NA,1,0,andalusian,mismatch,interrogative-partial-wh,Por que vivia en Paris,29,1,1,1,2.19,1.17,1.02,52,49.166666666666664,-1
5658000ca9872d0011e1ba26,learner,Midwest,I am not familiar with Spanish,no,NA,1,0,cuban,mismatch,interrogative-total-yn,Mi tia odia la lluvia,30,1,0,0,2.377,1.22,1.1569999999999998,52,49.166666666666664,-1
5658000ca9872d0011e1ba26,learner,Midwest,I am not familiar with Spanish,no,NA,1,0,andalusian,mismatch,interrogative-partial-wh,Por que venia del lago,31,1,1,1,3.201,1.29,1.911,52,49.166666666666664,-1
5658000ca9872d0011e1ba26,learner,Midwest,I am not familiar with Spanish,no,NA,1,0,chilean,mismatch,declarative-narrow-focus,La nina lava el plato,32,0,0,1,3.213,1.22,1.993,52,49.166666666666664,-1
5658000ca9872d0011e1ba26,learner,Midwest,I am not familiar with Spanish,no,NA,1,0,argentine,match,interrogative-partial-wh,Cuando bebia el vino,33,1,1,1,5.795,1.14,4.655,52,49.166666666666664,-1
5658000ca9872d0011e1ba26,learner,Midwest,I am not familiar with Spanish,no,NA,1,0,argentine,match,interrogative-total-yn,Ana lleva el abrigo,34,1,1,1,2.727,1.34,1.3869999999999998,52,49.166666666666664,-1
5658000ca9872d0011e1ba26,learner,Midwest,I am not familiar with Spanish,no,NA,1,0,mexican,mismatch,declarative-broad-focus,El nino oye el rio,35,0,0,1,3.122,1.08,2.042,52,49.166666666666664,-1
5658000ca9872d0011e1ba26,learner,Midwest,I am not familiar with Spanish,no,NA,1,0,andalusian,match,interrogative-partial-wh,Por que abre el regalo,36,1,0,0,3.981,1.21,2.771,52,49.166666666666664,-1
5658000ca9872d0011e1ba26,learner,Midwest,I am not familiar with Spanish,no,NA,1,0,castilian,match,interrogative-total-yn,Daniel iba a Bolivia,37,1,1,1,2.336,1.29,1.0459999999999998,52,49.166666666666664,-1
5658000ca9872d0011e1ba26,learner,Midwest,I am not familiar with Spanish,no,NA,1,0,mexican,mismatch,interrogative-partial-wh,Cuando miraba la luna,38,1,1,1,1.972,1.05,0.9219999999999999,52,49.166666666666664,-1
5658000ca9872d0011e1ba26,learner,Midwest,I am not familiar with Spanish,no,NA,1,0,castilian,match,interrogative-partial-wh,Por que hablaba del agua,39,1,1,1,2.61,1.46,1.15,52,49.166666666666664,-1
5658000ca9872d0011e1ba26,learner,Midwest,I am not familiar with Spanish,no,NA,1,0,castilian,mismatch,interrogative-total-yn,El hombre mira la luna,40,1,1,1,2.077,1.29,0.7869999999999999,52,49.166666666666664,-1
5658000ca9872d0011e1ba26,learner,Midwest,I am not familiar with Spanish,no,NA,1,0,puertorican,mismatch,interrogative-total-yn,El nino oye el rio,41,1,0,0,2.068,1.13,0.9380000000000002,52,49.166666666666664,-1
5658000ca9872d0011e1ba26,learner,Midwest,I am not familiar with Spanish,no,NA,1,0,chilean,mismatch,declarative-narrow-focus,El bebe comia muy bien,42,0,0,1,3.489,1.29,2.199,52,49.166666666666664,-1
5658000ca9872d0011e1ba26,learner,Midwest,I am not familiar with Spanish,no,NA,1,0,chilean,match,interrogative-total-yn,Maria bebe el vino,43,1,0,0,3.16,1.2,1.9600000000000002,52,49.166666666666664,-1
5658000ca9872d0011e1ba26,learner,Midwest,I am not familiar with Spanish,no,NA,1,0,castilian,mismatch,interrogative-total-yn,Mi novio viene del lago,44,1,0,0,2.66,1.53,1.1300000000000001,52,49.166666666666664,-1
5658000ca9872d0011e1ba26,learner,Midwest,I am not familiar with Spanish,no,NA,1,0,chilean,match,declarative-broad-focus,Daniel iba a Bolivia,45,0,0,1,2.17,1.1,1.0699999999999998,52,49.166666666666664,-1
5658000ca9872d0011e1ba26,learner,Midwest,I am not familiar with Spanish,no,NA,1,0,andalusian,mismatch,declarative-narrow-focus,El nino oye el rio,46,0,0,1,2.255,1.26,0.9949999999999999,52,49.166666666666664,-1
5658000ca9872d0011e1ba26,learner,Midwest,I am not familiar with Spanish,no,NA,1,0,chilean,mismatch,interrogative-partial-wh,Por que desayuna muy bien,47,1,1,1,2.181,1.45,0.7310000000000001,52,49.166666666666664,-1
5658000ca9872d0011e1ba26,learner,Midwest,I am not familiar with Spanish,no,NA,1,0,castilian,match,declarative-broad-focus,Ana lleva el abrigo,48,0,0,1,2.368,1.26,1.1079999999999999,52,49.166666666666664,-1
5658000ca9872d0011e1ba26,learner,Midwest,I am not familiar with Spanish,no,NA,1,0,cuban,mismatch,declarative-broad-focus,Mi novio viene del lago,49,0,0,1,1.952,1.4,0.552,52,49.166666666666664,-1
5658000ca9872d0011e1ba26,learner,Midwest,I am not familiar with Spanish,no,NA,1,0,chilean,mismatch,declarative-narrow-focus,El hombre mira la luna,50,0,0,1,1.786,1.2,0.5860000000000001,52,49.166666666666664,-1
5658000ca9872d0011e1ba26,learner,Midwest,I am not familiar with Spanish,no,NA,1,0,castilian,mismatch,declarative-broad-focus,El bebe comia muy bien,51,0,0,1,1.982,1.6,0.3819999999999999,52,49.166666666666664,-1
5658000ca9872d0011e1ba26,learner,Midwest,I am not familiar with Spanish,no,NA,1,0,peruvian,mismatch,declarative-broad-focus,Mi tia odia la lluvia,52,0,0,1,2.105,1.64,0.4650000000000001,52,49.166666666666664,-1
5658000ca9872d0011e1ba26,learner,Midwest,I am not familiar with Spanish,no,NA,1,0,cuban,mismatch,interrogative-total-yn,La nina lava el plato,53,1,0,0,2.201,1.19,1.0110000000000001,52,49.166666666666664,-1
5658000ca9872d0011e1ba26,learner,Midwest,I am not familiar with Spanish,no,NA,1,0,mexican,match,declarative-broad-focus,Mariano habla del tiempo,54,0,0,1,2.067,1.22,0.8470000000000002,52,49.166666666666664,-1
5658000ca9872d0011e1ba26,learner,Midwest,I am not familiar with Spanish,no,NA,1,0,andalusian,match,declarative-broad-focus,Maria bebe el vino,55,0,0,1,1.993,1.11,0.883,52,49.166666666666664,-1
5658000ca9872d0011e1ba26,learner,Midwest,I am not familiar with Spanish,no,NA,1,0,cuban,match,declarative-narrow-focus,David leia el libro,56,0,0,1,1.884,1.35,0.5339999999999998,52,49.166666666666664,-1
5658000ca9872d0011e1ba26,learner,Midwest,I am not familiar with Spanish,no,NA,1,0,castilian,mismatch,declarative-narrow-focus,La maestra vive en Paris,57,0,0,1,2.427,1.72,0.7070000000000001,52,49.166666666666664,-1
5658000ca9872d0011e1ba26,learner,Midwest,I am not familiar with Spanish,no,NA,1,0,castilian,mismatch,interrogative-partial-wh,Cuando lavaba el plato,58,1,1,1,2.051,1.33,0.7210000000000001,52,49.166666666666664,-1
5658000ca9872d0011e1ba26,learner,Midwest,I am not familiar with Spanish,no,NA,1,0,peruvian,mismatch,declarative-narrow-focus,Mi novio viene del lago,59,0,0,1,2.555,1.5,1.0550000000000002,52,49.166666666666664,-1
5658000ca9872d0011e1ba26,learner,Midwest,I am not familiar with Spanish,no,NA,1,0,peruvian,mismatch,declarative-narrow-focus,Mi tia odia la lluvia,60,0,0,1,2.613,1.61,1.003,52,49.166666666666664,-1
5658000ca9872d0011e1ba26,learner,Midwest,I am not familiar with Spanish,no,NA,1,0,mexican,match,interrogative-total-yn,Marta abre el regalo,61,1,1,1,2.259,1.15,1.109,52,49.166666666666664,-1
5658000ca9872d0011e1ba26,learner,Midwest,I am not familiar with Spanish,no,NA,1,0,argentine,match,declarative-broad-focus,David leia el libro,62,0,0,1,2.523,1.34,1.183,52,49.166666666666664,-1
5658000ca9872d0011e1ba26,learner,Midwest,I am not familiar with Spanish,no,NA,1,0,puertorican,mismatch,interrogative-partial-wh,Por que odiaba la lluvia,63,1,0,0,1.926,1.18,0.746,52,49.166666666666664,-1
5727aecae386b9000f4000cd,learner,South,I am not familiar with Spanish,no,NA,1,0,argentine,mismatch,declarative-broad-focus,Mi novio viene del lago,0,0,0,1,2.86563,1.68,1.18563,36,49.16666666666667,-1
5727aecae386b9000f4000cd,learner,South,I am not familiar with Spanish,no,NA,1,0,argentine,match,interrogative-partial-wh,Por que hablaba del agua,1,1,0,0,1.615955,1.36,0.25595499999999993,36,49.16666666666667,-1
5727aecae386b9000f4000cd,learner,South,I am not familiar with Spanish,no,NA,1,0,argentine,match,declarative-broad-focus,Mariano habla del tiempo,2,0,0,1,1.567125,1.28,0.2871250000000001,36,49.16666666666667,-1
5727aecae386b9000f4000cd,learner,South,I am not familiar with Spanish,no,NA,1,0,castilian,match,interrogative-total-yn,Manuela vende el carro,3,1,1,1,1.820765,1.49,0.330765,36,49.16666666666667,-1
5727aecae386b9000f4000cd,learner,South,I am not familiar with Spanish,no,NA,1,0,peruvian,match,interrogative-partial-wh,Por que abre el regalo,4,1,1,1,1.972475,1.53,0.44247499999999995,36,49.16666666666667,-1
5727aecae386b9000f4000cd,learner,South,I am not familiar with Spanish,no,NA,1,0,castilian,match,declarative-narrow-focus,Emilio ama la marcha,5,0,0,1,1.83201,1.36,0.4720099999999998,36,49.16666666666667,-1
5727aecae386b9000f4000cd,learner,South,I am not familiar with Spanish,no,NA,1,0,peruvian,match,interrogative-partial-wh,Por que iba a Bolivia,6,1,0,0,1.65015,1.29,0.36014999999999997,36,49.16666666666667,-1
5727aecae386b9000f4000cd,learner,South,I am not familiar with Spanish,no,NA,1,0,mexican,mismatch,declarative-broad-focus,Mi madre come la fruta,7,0,0,1,1.916765,1.26,0.656765,36,49.16666666666667,-1
5727aecae386b9000f4000cd,learner,South,I am not familiar with Spanish,no,NA,1,0,puertorican,match,interrogative-partial-wh,Cuando leia el libro,8,1,1,1,1.5668,1.01,0.5568,36,49.16666666666667,-1
5727aecae386b9000f4000cd,learner,South,I am not familiar with Spanish,no,NA,1,0,mexican,mismatch,declarative-narrow-focus,La maestra vive en Paris,9,0,0,1,1.568285,1.23,0.33828499999999995,36,49.16666666666667,-1
5727aecae386b9000f4000cd,learner,South,I am not familiar with Spanish,no,NA,1,0,castilian,mismatch,declarative-narrow-focus,Mi madre come la fruta,10,0,0,1,1.783495,1.49,0.29349500000000006,36,49.16666666666667,-1
5727aecae386b9000f4000cd,learner,South,I am not familiar with Spanish,no,NA,1,0,castilian,match,interrogative-partial-wh,Por que ama la navidad,11,1,1,1,1.676115,1.3,0.376115,36,49.16666666666667,-1
5727aecae386b9000f4000cd,learner,South,I am not familiar with Spanish,no,NA,1,0,argentine,mismatch,interrogative-total-yn,La maestra vive en Paris,12,1,1,1,1.710765,1.56,0.15076500000000004,36,49.16666666666667,-1
5727aecae386b9000f4000cd,learner,South,I am not familiar with Spanish,no,NA,1,0,argentine,mismatch,declarative-broad-focus,El bebe comia muy bien,13,0,0,1,1.907835,1.51,0.39783499999999994,36,49.16666666666667,-1
5727aecae386b9000f4000cd,learner,South,I am not familiar with Spanish,no,NA,1,0,puertorican,mismatch,declarative-narrow-focus,El hombre mira la luna,14,0,0,1,1.388825,1.13,0.2588250000000001,36,49.16666666666667,-1
5727aecae386b9000f4000cd,learner,South,I am not familiar with Spanish,no,NA,1,0,andalusian,match,interrogative-partial-wh,Cuando lleva el abrigo,15,1,0,0,1.4765,1.21,0.26649999999999996,36,49.16666666666667,-1
5727aecae386b9000f4000cd,learner,South,I am not familiar with Spanish,no,NA,1,0,andalusian,match,declarative-broad-focus,David leia el libro,16,0,0,1,1.62289,1.43,0.19289,36,49.16666666666667,-1
5727aecae386b9000f4000cd,learner,South,I am not familiar with Spanish,no,NA,1,0,peruvian,mismatch,interrogative-total-yn,El bebe comia muy bien,17,1,1,1,1.96242,1.68,0.2824200000000001,36,49.16666666666667,-1
5727aecae386b9000f4000cd,learner,South,I am not familiar with Spanish,no,NA,1,0,castilian,mismatch,interrogative-total-yn,Mi tia odia la lluvia,18,1,1,1,1.70556,1.46,0.24556,36,49.16666666666667,-1
5727aecae386b9000f4000cd,learner,South,I am not familiar with Spanish,no,NA,1,0,peruvian,mismatch,interrogative-total-yn,El nino oye el rio,19,1,1,1,1.604345,1.45,0.15434499999999995,36,49.16666666666667,-1
5727aecae386b9000f4000cd,learner,South,I am not familiar with Spanish,no,NA,1,0,puertorican,mismatch,interrogative-partial-wh,Cuando lavaba el plato,20,1,0,0,1.7514,1.22,0.5314000000000001,36,49.16666666666667,-1
5727aecae386b9000f4000cd,learner,South,I am not familiar with Spanish,no,NA,1,0,andalusian,mismatch,interrogative-partial-wh,Por que odiaba la lluvia,21,1,0,0,1.52577,1.31,0.21577000000000002,36,49.16666666666667,-1
5727aecae386b9000f4000cd,learner,South,I am not familiar with Spanish,no,NA,1,0,castilian,match,declarative-narrow-focus,Manuela vende el carro,22,0,0,1,1.641705,1.44,0.20170500000000002,36,49.16666666666667,-1
5727aecae386b9000f4000cd,learner,South,I am not familiar with Spanish,no,NA,1,0,peruvian,match,declarative-narrow-focus,Ana lleva el abrigo,23,0,0,1,1.599775,1.32,0.2797749999999999,36,49.16666666666667,-1
5727aecae386b9000f4000cd,learner,South,I am not familiar with Spanish,no,NA,1,0,puertorican,match,interrogative-total-yn,Daniel iba a Bolivia,24,1,0,0,1.44236,1.14,0.3023600000000002,36,49.16666666666667,-1
5727aecae386b9000f4000cd,learner,South,I am not familiar with Spanish,no,NA,1,0,castilian,mismatch,interrogative-partial-wh,Cuando comia la fruta,25,1,1,1,1.62658,1.4,0.22658,36,49.16666666666667,-1
5727aecae386b9000f4000cd,learner,South,I am not familiar with Spanish,no,NA,1,0,mexican,match,declarative-broad-focus,Ana lleva el abrigo,26,0,0,1,1.433935,1.09,0.3439349999999999,36,49.16666666666667,-1
5727aecae386b9000f4000cd,learner,South,I am not familiar with Spanish,no,NA,1,0,argentine,match,interrogative-total-yn,Ana lleva el abrigo,27,1,0,0,1.792325,1.34,0.45232499999999987,36,49.16666666666667,-1
5727aecae386b9000f4000cd,learner,South,I am not familiar with Spanish,no,NA,1,0,peruvian,mismatch,declarative-broad-focus,El hombre mira la luna,28,0,0,1,1.607575,1.35,0.2575749999999999,36,49.16666666666667,-1
5727aecae386b9000f4000cd,learner,South,I am not familiar with Spanish,no,NA,1,0,chilean,match,interrogative-partial-wh,Cuando vendia el carro,29,1,1,1,1.76176,1.32,0.44175999999999993,36,49.16666666666667,-1
5727aecae386b9000f4000cd,learner,South,I am not familiar with Spanish,no,NA,1,0,cuban,mismatch,declarative-narrow-focus,La nina lava el plato,30,0,0,1,1.61273,1.16,0.4527300000000001,36,49.16666666666667,-1
5727aecae386b9000f4000cd,learner,South,I am not familiar with Spanish,no,NA,1,0,mexican,match,interrogative-total-yn,Emilio ama la marcha,31,1,1,1,1.784545,1.23,0.5545450000000001,36,49.16666666666667,-1
5727aecae386b9000f4000cd,learner,South,I am not familiar with Spanish,no,NA,1,0,chilean,mismatch,interrogative-total-yn,El hombre mira la luna,32,1,1,1,1.43281,1.18,0.25281,36,49.16666666666667,-1
5727aecae386b9000f4000cd,learner,South,I am not familiar with Spanish,no,NA,1,0,mexican,match,declarative-broad-focus,Manuela vende el carro,33,0,0,1,1.50296,1.15,0.35296000000000016,36,49.16666666666667,-1
5727aecae386b9000f4000cd,learner,South,I am not familiar with Spanish,no,NA,1,0,cuban,match,interrogative-partial-wh,Cuando bebia el vino,34,1,0,0,1.47457,1.12,0.35456999999999983,36,49.16666666666667,-1
5727aecae386b9000f4000cd,learner,South,I am not familiar with Spanish,no,NA,1,0,andalusian,match,declarative-narrow-focus,Mariano habla del tiempo,35,0,0,1,1.98081,1.64,0.34081000000000006,36,49.16666666666667,-1
5727aecae386b9000f4000cd,learner,South,I am not familiar with Spanish,no,NA,1,0,puertorican,match,declarative-narrow-focus,Maria bebe el vino,36,0,0,1,1.56722,1.2,0.3672200000000001,36,49.16666666666667,-1
5727aecae386b9000f4000cd,learner,South,I am not familiar with Spanish,no,NA,1,0,andalusian,mismatch,declarative-narrow-focus,El nino oye el rio,37,0,0,1,1.69958,1.26,0.4395800000000001,36,49.16666666666667,-1
5727aecae386b9000f4000cd,learner,South,I am not familiar with Spanish,no,NA,1,0,peruvian,match,declarative-broad-focus,Marta abre el regalo,38,0,0,1,1.684275,1.46,0.224275,36,49.16666666666667,-1
5727aecae386b9000f4000cd,learner,South,I am not familiar with Spanish,no,NA,1,0,andalusian,match,declarative-broad-focus,Emilio ama la marcha,39,0,0,1,1.50027,1.27,0.23026999999999997,36,49.16666666666667,-1
5727aecae386b9000f4000cd,learner,South,I am not familiar with Spanish,no,NA,1,0,peruvian,mismatch,interrogative-partial-wh,Por que oia el rio,40,1,0,0,1.68199,1.4,0.2819900000000002,36,49.16666666666667,-1
5727aecae386b9000f4000cd,learner,South,I am not familiar with Spanish,no,NA,1,0,chilean,mismatch,interrogative-total-yn,Mi novio viene del lago,41,1,1,1,1.583865,1.29,0.29386500000000004,36,49.16666666666667,-1
5727aecae386b9000f4000cd,learner,South,I am not familiar with Spanish,no,NA,1,0,cuban,mismatch,declarative-broad-focus,La maestra vive en Paris,42,0,0,1,1.671865,1.29,0.3818649999999999,36,49.16666666666667,-1
5727aecae386b9000f4000cd,learner,South,I am not familiar with Spanish,no,NA,1,0,mexican,mismatch,declarative-narrow-focus,El bebe comia muy bien,43,0,0,1,1.54397,1.14,0.40397000000000016,36,49.16666666666667,-1
5727aecae386b9000f4000cd,learner,South,I am not familiar with Spanish,no,NA,1,0,puertorican,mismatch,interrogative-partial-wh,Por que venia del lago,44,1,0,0,1.51804,1.13,0.38804000000000016,36,49.16666666666667,-1
5727aecae386b9000f4000cd,learner,South,I am not familiar with Spanish,no,NA,1,0,cuban,mismatch,interrogative-partial-wh,Por que desayuna muy bien,45,1,0,0,1.54026,1.36,0.18025999999999986,36,49.16666666666667,-1
5727aecae386b9000f4000cd,learner,South,I am not familiar with Spanish,no,NA,1,0,puertorican,match,declarative-broad-focus,Daniel iba a Bolivia,46,0,0,1,1.723335,1.2,0.5233350000000001,36,49.16666666666667,-1
5727aecae386b9000f4000cd,learner,South,I am not familiar with Spanish,no,NA,1,0,argentine,mismatch,interrogative-total-yn,Mi madre come la fruta,47,1,0,0,3.269,1.5,1.7690000000000001,36,49.16666666666667,-1
5727aecae386b9000f4000cd,learner,South,I am not familiar with Spanish,no,NA,1,0,mexican,mismatch,interrogative-total-yn,La nina lava el plato,48,1,1,1,2.22452,1.25,0.97452,36,49.16666666666667,-1
5727aecae386b9000f4000cd,learner,South,I am not familiar with Spanish,no,NA,1,0,peruvian,match,declarative-narrow-focus,Marta abre el regalo,49,0,0,1,1.91766,1.37,0.5476599999999998,36,49.16666666666667,-1
5727aecae386b9000f4000cd,learner,South,I am not familiar with Spanish,no,NA,1,0,cuban,mismatch,interrogative-partial-wh,Por que vivia en Paris,50,1,0,0,1.640885,1.09,0.5508849999999998,36,49.16666666666667,-1
5727aecae386b9000f4000cd,learner,South,I am not familiar with Spanish,no,NA,1,0,cuban,match,interrogative-total-yn,Marta abre el regalo,51,1,0,0,2.03454,1.25,0.7845399999999998,36,49.16666666666667,-1
5727aecae386b9000f4000cd,learner,South,I am not familiar with Spanish,no,NA,1,0,andalusian,mismatch,declarative-narrow-focus,Mi novio viene del lago,52,0,0,1,1.60252,1.21,0.39252,36,49.16666666666667,-1
5727aecae386b9000f4000cd,learner,South,I am not familiar with Spanish,no,NA,1,0,chilean,match,declarative-narrow-focus,David leia el libro,53,0,0,1,1.41975,1.13,0.2897500000000002,36,49.16666666666667,-1
5727aecae386b9000f4000cd,learner,South,I am not familiar with Spanish,no,NA,1,0,mexican,match,declarative-narrow-focus,Daniel iba a Bolivia,54,0,0,1,1.726425,1.1,0.626425,36,49.16666666666667,-1
5727aecae386b9000f4000cd,learner,South,I am not familiar with Spanish,no,NA,1,0,puertorican,mismatch,declarative-broad-focus,Mi tia odia la lluvia,55,0,0,1,1.6832,1.23,0.45320000000000005,36,49.16666666666667,-1
5727aecae386b9000f4000cd,learner,South,I am not familiar with Spanish,no,NA,1,0,chilean,mismatch,interrogative-partial-wh,Cuando miraba la luna,56,1,1,1,1.53847,1.25,0.28847,36,49.16666666666667,-1
5727aecae386b9000f4000cd,learner,South,I am not familiar with Spanish,no,NA,1,0,chilean,mismatch,declarative-broad-focus,La nina lava el plato,57,0,0,1,1.476795,1.06,0.416795,36,49.16666666666667,-1
5727aecae386b9000f4000cd,learner,South,I am not familiar with Spanish,no,NA,1,0,chilean,match,interrogative-total-yn,Mariano habla del tiempo,58,1,0,0,2.25088,1.37,0.8808799999999999,36,49.16666666666667,-1
5727aecae386b9000f4000cd,learner,South,I am not familiar with Spanish,no,NA,1,0,puertorican,match,interrogative-total-yn,David leia el libro,59,1,0,0,1.841675,0.99,0.851675,36,49.16666666666667,-1
5727aecae386b9000f4000cd,learner,South,I am not familiar with Spanish,no,NA,1,0,mexican,mismatch,declarative-narrow-focus,Mi tia odia la lluvia,60,0,0,1,1.53566,1.21,0.32566000000000006,36,49.16666666666667,-1
5727aecae386b9000f4000cd,learner,South,I am not familiar with Spanish,no,NA,1,0,castilian,mismatch,declarative-broad-focus,El nino oye el rio,61,0,0,1,1.755255,1.41,0.3452550000000001,36,49.16666666666667,-1
5727aecae386b9000f4000cd,learner,South,I am not familiar with Spanish,no,NA,1,0,castilian,match,interrogative-total-yn,Maria bebe el vino,62,1,1,1,1.667525,1.31,0.35752499999999987,36,49.16666666666667,-1
5727aecae386b9000f4000cd,learner,South,I am not familiar with Spanish,no,NA,1,0,puertorican,match,declarative-broad-focus,Maria bebe el vino,63,0,0,1,1.6735,1.13,0.5435000000000001,36,49.16666666666667,-1
57901207c9abeb0001af353e,learner,Midwest,I am not familiar with Spanish,no,NA,1,0,mexican,match,interrogative-partial-wh,Cuando leia el libro,0,1,0,0,2.808,1.03,1.7779999999999998,67,47.5,-3
57901207c9abeb0001af353e,learner,Midwest,I am not familiar with Spanish,no,NA,1,0,argentine,match,declarative-narrow-focus,Ana lleva el abrigo,1,0,0,1,2.551,1.16,1.3910000000000002,67,47.5,-3
57901207c9abeb0001af353e,learner,Midwest,I am not familiar with Spanish,no,NA,1,0,andalusian,match,declarative-broad-focus,Emilio ama la marcha,2,0,0,1,2.165,1.27,0.895,67,47.5,-3
57901207c9abeb0001af353e,learner,Midwest,I am not familiar with Spanish,no,NA,1,0,cuban,match,interrogative-total-yn,Mariano habla del tiempo,3,1,0,0,2.386,1.44,0.9460000000000002,67,47.5,-3
57901207c9abeb0001af353e,learner,Midwest,I am not familiar with Spanish,no,NA,1,0,argentine,mismatch,declarative-broad-focus,Mi madre come la fruta,4,0,0,1,2.306,1.52,0.786,67,47.5,-3
57901207c9abeb0001af353e,learner,Midwest,I am not familiar with Spanish,no,NA,1,0,argentine,match,declarative-broad-focus,Manuela vende el carro,5,0,1,0,3.468,1.38,2.088,67,47.5,-3
57901207c9abeb0001af353e,learner,Midwest,I am not familiar with Spanish,no,NA,1,0,andalusian,mismatch,declarative-narrow-focus,El hombre mira la luna,6,0,1,0,2.04,1.33,0.71,67,47.5,-3
57901207c9abeb0001af353e,learner,Midwest,I am not familiar with Spanish,no,NA,1,0,peruvian,mismatch,interrogative-partial-wh,Por que odiaba la lluvia,7,1,0,0,2.57,1.52,1.0499999999999998,67,47.5,-3
57901207c9abeb0001af353e,learner,Midwest,I am not familiar with Spanish,no,NA,1,0,chilean,match,interrogative-total-yn,Daniel iba a Bolivia,8,1,1,1,1.685,1.06,0.625,67,47.5,-3
57901207c9abeb0001af353e,learner,Midwest,I am not familiar with Spanish,no,NA,1,0,cuban,mismatch,interrogative-partial-wh,Por que vivia en Paris,9,1,0,0,2.102,1.09,1.0119999999999998,67,47.5,-3
57901207c9abeb0001af353e,learner,Midwest,I am not familiar with Spanish,no,NA,1,0,argentine,match,interrogative-total-yn,Manuela vende el carro,10,1,1,1,1.987,1.45,0.5370000000000001,67,47.5,-3
57901207c9abeb0001af353e,learner,Midwest,I am not familiar with Spanish,no,NA,1,0,chilean,mismatch,interrogative-total-yn,Mi tia odia la lluvia,11,1,1,1,1.985,1.37,0.615,67,47.5,-3
57901207c9abeb0001af353e,learner,Midwest,I am not familiar with Spanish,no,NA,1,0,mexican,mismatch,declarative-broad-focus,Mi novio viene del lago,12,0,0,1,1.951,1.14,0.8110000000000002,67,47.5,-3
57901207c9abeb0001af353e,learner,Midwest,I am not familiar with Spanish,no,NA,1,0,peruvian,mismatch,declarative-narrow-focus,La maestra vive en Paris,13,0,0,1,2.535,1.74,0.7950000000000002,67,47.5,-3
57901207c9abeb0001af353e,learner,Midwest,I am not familiar with Spanish,no,NA,1,0,argentine,match,declarative-narrow-focus,David leia el libro,14,0,0,1,2.085,1.13,0.9550000000000001,67,47.5,-3
57901207c9abeb0001af353e,learner,Midwest,I am not familiar with Spanish,no,NA,1,0,chilean,match,declarative-broad-focus,Mariano habla del tiempo,15,0,0,1,2.668,1.47,1.1980000000000002,67,47.5,-3
57901207c9abeb0001af353e,learner,Midwest,I am not familiar with Spanish,no,NA,1,0,mexican,match,declarative-narrow-focus,Daniel iba a Bolivia,16,0,0,1,1.919,1.1,0.819,67,47.5,-3
57901207c9abeb0001af353e,learner,Midwest,I am not familiar with Spanish,no,NA,1,0,castilian,mismatch,declarative-narrow-focus,El bebe comia muy bien,17,0,0,1,2.133,1.48,0.653,67,47.5,-3
57901207c9abeb0001af353e,learner,Midwest,I am not familiar with Spanish,no,NA,1,0,puertorican,mismatch,interrogative-total-yn,Mi madre come la fruta,18,1,0,0,2.281,1.25,1.0310000000000001,67,47.5,-3
57901207c9abeb0001af353e,learner,Midwest,I am not familiar with Spanish,no,NA,1,0,puertorican,mismatch,declarative-broad-focus,Mi tia odia la lluvia,19,0,0,1,1.95,1.23,0.72,67,47.5,-3
57901207c9abeb0001af353e,learner,Midwest,I am not familiar with Spanish,no,NA,1,0,mexican,mismatch,declarative-broad-focus,El bebe comia muy bien,20,0,1,0,2.233,1.19,1.0430000000000001,67,47.5,-3
57901207c9abeb0001af353e,learner,Midwest,I am not familiar with Spanish,no,NA,1,0,puertorican,match,interrogative-partial-wh,Cuando vendia el carro,21,1,1,1,1.768,1.15,0.6180000000000001,67,47.5,-3
57901207c9abeb0001af353e,learner,Midwest,I am not familiar with Spanish,no,NA,1,0,puertorican,mismatch,declarative-narrow-focus,Mi madre come la fruta,22,0,0,1,2.25,1.29,0.96,67,47.5,-3
57901207c9abeb0001af353e,learner,Midwest,I am not familiar with Spanish,no,NA,1,0,argentine,mismatch,interrogative-total-yn,El bebe comia muy bien,23,1,1,1,1.771,1.29,0.48099999999999987,67,47.5,-3
57901207c9abeb0001af353e,learner,Midwest,I am not familiar with Spanish,no,NA,1,0,peruvian,mismatch,interrogative-total-yn,El nino oye el rio,24,1,1,1,1.97,1.45,0.52,67,47.5,-3
57901207c9abeb0001af353e,learner,Midwest,I am not familiar with Spanish,no,NA,1,0,chilean,mismatch,interrogative-partial-wh,Por que desayuna muy bien,25,1,1,1,2.067,1.45,0.6170000000000002,67,47.5,-3
57901207c9abeb0001af353e,learner,Midwest,I am not familiar with Spanish,no,NA,1,0,cuban,mismatch,declarative-narrow-focus,Mi novio viene del lago,26,0,0,1,1.918,1.32,0.5979999999999999,67,47.5,-3
57901207c9abeb0001af353e,learner,Midwest,I am not familiar with Spanish,no,NA,1,0,andalusian,mismatch,declarative-narrow-focus,La nina lava el plato,27,0,0,1,2.2,1.41,0.7900000000000003,67,47.5,-3
57901207c9abeb0001af353e,learner,Midwest,I am not familiar with Spanish,no,NA,1,0,peruvian,match,interrogative-total-yn,Ana lleva el abrigo,28,1,1,1,2.286,1.39,0.8960000000000001,67,47.5,-3
57901207c9abeb0001af353e,learner,Midwest,I am not familiar with Spanish,no,NA,1,0,andalusian,mismatch,declarative-broad-focus,El hombre mira la luna,29,0,1,0,2.284,1.25,1.0339999999999998,67,47.5,-3
57901207c9abeb0001af353e,learner,Midwest,I am not familiar with Spanish,no,NA,1,0,andalusian,mismatch,interrogative-total-yn,El hombre mira la luna,30,1,1,1,2.65,1.32,1.3299999999999998,67,47.5,-3
57901207c9abeb0001af353e,learner,Midwest,I am not familiar with Spanish,no,NA,1,0,andalusian,match,interrogative-partial-wh,Por que iba a Bolivia,31,1,0,0,2.068,1.23,0.8380000000000001,67,47.5,-3
57901207c9abeb0001af353e,learner,Midwest,I am not familiar with Spanish,no,NA,1,0,mexican,match,interrogative-total-yn,David leia el libro,32,1,1,1,2.068,1.21,0.8580000000000001,67,47.5,-3
57901207c9abeb0001af353e,learner,Midwest,I am not familiar with Spanish,no,NA,1,0,castilian,mismatch,declarative-narrow-focus,El nino oye el rio,33,0,0,1,2.502,1.39,1.1119999999999999,67,47.5,-3
57901207c9abeb0001af353e,learner,Midwest,I am not familiar with Spanish,no,NA,1,0,cuban,match,interrogative-total-yn,Marta abre el regalo,34,1,0,0,2.133,1.25,0.883,67,47.5,-3
57901207c9abeb0001af353e,learner,Midwest,I am not familiar with Spanish,no,NA,1,0,peruvian,mismatch,interrogative-total-yn,Mi novio viene del lago,35,1,1,1,2.202,1.63,0.5720000000000001,67,47.5,-3
57901207c9abeb0001af353e,learner,Midwest,I am not familiar with Spanish,no,NA,1,0,puertorican,mismatch,declarative-broad-focus,El nino oye el rio,36,0,0,1,2.816,1.14,1.676,67,47.5,-3
57901207c9abeb0001af353e,learner,Midwest,I am not familiar with Spanish,no,NA,1,0,castilian,mismatch,interrogative-partial-wh,Por que venia del lago,37,1,1,1,2.249,1.45,0.7990000000000002,67,47.5,-3
57901207c9abeb0001af353e,learner,Midwest,I am not familiar with Spanish,no,NA,1,0,cuban,match,interrogative-partial-wh,Cuando lleva el abrigo,38,1,0,0,2.382,1.18,1.2020000000000002,67,47.5,-3
57901207c9abeb0001af353e,learner,Midwest,I am not familiar with Spanish,no,NA,1,0,argentine,mismatch,interrogative-partial-wh,Cuando comia la fruta,39,1,0,0,2.321,1.32,1.0010000000000001,67,47.5,-3
57901207c9abeb0001af353e,learner,Midwest,I am not familiar with Spanish,no,NA,1,0,castilian,match,declarative-broad-focus,Ana lleva el abrigo,40,0,0,1,4.256,1.26,2.9960000000000004,67,47.5,-3
57901207c9abeb0001af353e,learner,Midwest,I am not familiar with Spanish,no,NA,1,0,castilian,mismatch,interrogative-total-yn,La nina lava el plato,41,1,1,1,2.106,1.45,0.6559999999999999,67,47.5,-3
57901207c9abeb0001af353e,learner,Midwest,I am not familiar with Spanish,no,NA,1,0,cuban,match,interrogative-total-yn,Emilio ama la marcha,42,1,0,0,1.876,1.28,0.5959999999999999,67,47.5,-3
57901207c9abeb0001af353e,learner,Midwest,I am not familiar with Spanish,no,NA,1,0,cuban,match,declarative-narrow-focus,Manuela vende el carro,43,0,0,1,2.249,1.38,0.8690000000000002,67,47.5,-3
57901207c9abeb0001af353e,learner,Midwest,I am not familiar with Spanish,no,NA,1,0,castilian,mismatch,interrogative-partial-wh,Cuando miraba la luna,44,1,1,1,1.835,1.32,0.5149999999999999,67,47.5,-3
57901207c9abeb0001af353e,learner,Midwest,I am not familiar with Spanish,no,NA,1,0,castilian,match,declarative-broad-focus,David leia el libro,45,0,0,1,2.206,1.48,0.726,67,47.5,-3
57901207c9abeb0001af353e,learner,Midwest,I am not familiar with Spanish,no,NA,1,0,andalusian,mismatch,declarative-broad-focus,La nina lava el plato,46,0,0,1,2.419,1.21,1.209,67,47.5,-3
57901207c9abeb0001af353e,learner,Midwest,I am not familiar with Spanish,no,NA,1,0,peruvian,match,interrogative-partial-wh,Por que ama la navidad,47,1,1,1,2.898,1.54,1.358,67,47.5,-3
57901207c9abeb0001af353e,learner,Midwest,I am not familiar with Spanish,no,NA,1,0,argentine,match,interrogative-partial-wh,Por que hablaba del agua,48,1,0,0,3.838,1.36,2.4779999999999998,67,47.5,-3
57901207c9abeb0001af353e,learner,Midwest,I am not familiar with Spanish,no,NA,1,0,chilean,match,declarative-broad-focus,Maria bebe el vino,49,0,0,1,2.051,0.97,1.0810000000000002,67,47.5,-3
57901207c9abeb0001af353e,learner,Midwest,I am not familiar with Spanish,no,NA,1,0,argentine,match,interrogative-partial-wh,Cuando bebia el vino,50,1,0,0,2.18,1.14,1.0400000000000003,67,47.5,-3
57901207c9abeb0001af353e,learner,Midwest,I am not familiar with Spanish,no,NA,1,0,peruvian,match,declarative-broad-focus,Marta abre el regalo,51,0,0,1,2.817,1.46,1.3570000000000002,67,47.5,-3
57901207c9abeb0001af353e,learner,Midwest,I am not familiar with Spanish,no,NA,1,0,peruvian,mismatch,declarative-broad-focus,La maestra vive en Paris,52,0,0,1,2.638,1.75,0.8879999999999999,67,47.5,-3
57901207c9abeb0001af353e,learner,Midwest,I am not familiar with Spanish,no,NA,1,0,castilian,mismatch,interrogative-total-yn,La maestra vive en Paris,53,1,1,1,2.439,1.76,0.679,67,47.5,-3
57901207c9abeb0001af353e,learner,Midwest,I am not familiar with Spanish,no,NA,1,0,argentine,match,declarative-narrow-focus,Emilio ama la marcha,54,0,0,1,2.386,1.38,1.0060000000000002,67,47.5,-3
57901207c9abeb0001af353e,learner,Midwest,I am not familiar with Spanish,no,NA,1,0,puertorican,match,declarative-narrow-focus,Marta abre el regalo,55,0,0,1,3.317,1.16,2.157,67,47.5,-3
57901207c9abeb0001af353e,learner,Midwest,I am not familiar with Spanish,no,NA,1,0,cuban,mismatch,interrogative-partial-wh,Cuando lavaba el plato,56,1,1,1,3.758,1.22,2.5380000000000003,67,47.5,-3
57901207c9abeb0001af353e,learner,Midwest,I am not familiar with Spanish,no,NA,1,0,andalusian,match,interrogative-partial-wh,Por que abre el regalo,57,1,0,0,2.086,1.21,0.8759999999999999,67,47.5,-3
57901207c9abeb0001af353e,learner,Midwest,I am not familiar with Spanish,no,NA,1,0,argentine,mismatch,interrogative-partial-wh,Por que oia el rio,58,1,1,1,3.638,1.2,2.4379999999999997,67,47.5,-3
57901207c9abeb0001af353e,learner,Midwest,I am not familiar with Spanish,no,NA,1,0,mexican,match,interrogative-total-yn,Maria bebe el vino,59,1,1,1,2.338,1.18,1.1580000000000001,67,47.5,-3
57901207c9abeb0001af353e,learner,Midwest,I am not familiar with Spanish,no,NA,1,0,argentine,match,declarative-narrow-focus,Maria bebe el vino,60,0,1,0,3.068,1.22,1.848,67,47.5,-3
57901207c9abeb0001af353e,learner,Midwest,I am not familiar with Spanish,no,NA,1,0,peruvian,match,declarative-broad-focus,Daniel iba a Bolivia,61,0,0,1,2.6,1.44,1.1600000000000001,67,47.5,-3
57901207c9abeb0001af353e,learner,Midwest,I am not familiar with Spanish,no,NA,1,0,chilean,mismatch,declarative-narrow-focus,Mi tia odia la lluvia,62,0,0,1,2.805,1.44,1.3650000000000002,67,47.5,-3
57901207c9abeb0001af353e,learner,Midwest,I am not familiar with Spanish,no,NA,1,0,peruvian,match,declarative-narrow-focus,Mariano habla del tiempo,63,0,0,1,2.634,1.6,1.0339999999999998,67,47.5,-3
5a2e19cca3a512000195866a,learner,Midwest,United States,no,NA,1,0,cuban,match,declarative-broad-focus,Manuela vende el carro,0,0,0,1,2.007,1.39,0.6170000000000002,18,55,6
5a2e19cca3a512000195866a,learner,Midwest,United States,no,NA,1,0,andalusian,match,declarative-narrow-focus,Manuela vende el carro,1,0,0,1,1.905,1.45,0.45500000000000007,18,55,6
5a2e19cca3a512000195866a,learner,Midwest,United States,no,NA,1,0,cuban,mismatch,declarative-broad-focus,La nina lava el plato,2,0,0,1,1.67,1.22,0.44999999999999996,18,55,6
5a2e19cca3a512000195866a,learner,Midwest,United States,no,NA,1,0,cuban,mismatch,declarative-broad-focus,El nino oye el rio,3,0,0,1,1.803,1.39,0.41300000000000003,18,55,6
5a2e19cca3a512000195866a,learner,Midwest,United States,no,NA,1,0,chilean,mismatch,declarative-narrow-focus,El bebe comia muy bien,4,0,0,1,2.022,1.29,0.7319999999999998,18,55,6
5a2e19cca3a512000195866a,learner,Midwest,United States,no,NA,1,0,peruvian,match,declarative-narrow-focus,David leia el libro,5,0,0,1,1.795,1.35,0.44499999999999984,18,55,6
5a2e19cca3a512000195866a,learner,Midwest,United States,no,NA,1,0,castilian,mismatch,declarative-broad-focus,Mi tia odia la lluvia,6,0,0,1,1.879,1.3,0.579,18,55,6
5a2e19cca3a512000195866a,learner,Midwest,United States,no,NA,1,0,puertorican,mismatch,interrogative-total-yn,Mi madre come la fruta,7,1,1,1,2.083,1.25,0.8330000000000002,18,55,6
5a2e19cca3a512000195866a,learner,Midwest,United States,no,NA,1,0,chilean,match,interrogative-partial-wh,Cuando lleva el abrigo,8,1,1,1,1.666,1.17,0.496,18,55,6
5a2e19cca3a512000195866a,learner,Midwest,United States,no,NA,1,0,castilian,match,interrogative-partial-wh,Cuando vendia el carro,9,1,1,1,1.652,1.36,0.2919999999999998,18,55,6
5a2e19cca3a512000195866a,learner,Midwest,United States,no,NA,1,0,castilian,match,interrogative-total-yn,Mariano habla del tiempo,10,1,1,1,1.869,1.58,0.2889999999999999,18,55,6
5a2e19cca3a512000195866a,learner,Midwest,United States,no,NA,1,0,cuban,match,declarative-broad-focus,Emilio ama la marcha,11,0,0,1,1.698,1.23,0.46799999999999997,18,55,6
5a2e19cca3a512000195866a,learner,Midwest,United States,no,NA,1,0,peruvian,mismatch,declarative-narrow-focus,El nino oye el rio,12,0,0,1,2.204,1.57,0.6340000000000001,18,55,6
5a2e19cca3a512000195866a,learner,Midwest,United States,no,NA,1,0,andalusian,match,interrogative-total-yn,David leia el libro,13,1,1,1,1.648,1.25,0.3979999999999999,18,55,6
5a2e19cca3a512000195866a,learner,Midwest,United States,no,NA,1,0,mexican,match,interrogative-total-yn,Emilio ama la marcha,14,1,1,1,1.589,1.23,0.359,18,55,6
5a2e19cca3a512000195866a,learner,Midwest,United States,no,NA,1,0,castilian,mismatch,declarative-narrow-focus,El hombre mira la luna,15,0,0,1,1.912,1.28,0.6319999999999999,18,55,6
5a2e19cca3a512000195866a,learner,Midwest,United States,no,NA,1,0,puertorican,match,declarative-broad-focus,Mariano habla del tiempo,16,0,0,1,1.951,1.29,0.661,18,55,6
5a2e19cca3a512000195866a,learner,Midwest,United States,no,NA,1,0,cuban,match,declarative-broad-focus,Marta abre el regalo,17,0,0,1,1.836,1.33,0.506,18,55,6
5a2e19cca3a512000195866a,learner,Midwest,United States,no,NA,1,0,puertorican,mismatch,declarative-broad-focus,El hombre mira la luna,18,0,0,1,1.649,1.19,0.4590000000000001,18,55,6
5a2e19cca3a512000195866a,learner,Midwest,United States,no,NA,1,0,peruvian,match,declarative-broad-focus,Daniel iba a Bolivia,19,0,0,1,1.888,1.44,0.44799999999999995,18,55,6
5a2e19cca3a512000195866a,learner,Midwest,United States,no,NA,1,0,chilean,mismatch,interrogative-partial-wh,Cuando lavaba el plato,20,1,1,1,1.807,1.28,0.5269999999999999,18,55,6
5a2e19cca3a512000195866a,learner,Midwest,United States,no,NA,1,0,castilian,match,declarative-broad-focus,Maria bebe el vino,21,0,0,1,1.844,1.36,0.484,18,55,6
5a2e19cca3a512000195866a,learner,Midwest,United States,no,NA,1,0,castilian,match,declarative-broad-focus,David leia el libro,22,0,0,1,1.962,1.48,0.482,18,55,6
5a2e19cca3a512000195866a,learner,Midwest,United States,no,NA,1,0,andalusian,match,interrogative-partial-wh,Por que iba a Bolivia,23,1,1,1,1.847,1.23,0.617,18,55,6
5a2e19cca3a512000195866a,learner,Midwest,United States,no,NA,1,0,mexican,mismatch,declarative-narrow-focus,Mi madre come la fruta,24,0,0,1,2.365,1.27,1.0950000000000002,18,55,6
5a2e19cca3a512000195866a,learner,Midwest,United States,no,NA,1,0,mexican,match,interrogative-partial-wh,Por que abre el regalo,25,1,1,1,1.483,1.13,0.3530000000000002,18,55,6
5a2e19cca3a512000195866a,learner,Midwest,United States,no,NA,1,0,argentine,mismatch,declarative-broad-focus,Mi novio viene del lago,26,0,0,1,2.03,1.68,0.34999999999999987,18,55,6
5a2e19cca3a512000195866a,learner,Midwest,United States,no,NA,1,0,puertorican,mismatch,declarative-narrow-focus,La nina lava el plato,27,0,0,1,1.795,1.14,0.655,18,55,6
5a2e19cca3a512000195866a,learner,Midwest,United States,no,NA,1,0,peruvian,mismatch,declarative-narrow-focus,Mi novio viene del lago,28,0,0,1,2.359,1.5,0.859,18,55,6
5a2e19cca3a512000195866a,learner,Midwest,United States,no,NA,1,0,mexican,mismatch,interrogative-partial-wh,Por que oia el rio,29,1,1,1,1.634,1.08,0.5539999999999998,18,55,6
5a2e19cca3a512000195866a,learner,Midwest,United States,no,NA,1,0,andalusian,mismatch,declarative-broad-focus,El bebe comia muy bien,30,0,0,1,2.289,1.33,0.9590000000000001,18,55,6
5a2e19cca3a512000195866a,learner,Midwest,United States,no,NA,1,0,andalusian,mismatch,interrogative-partial-wh,Por que vivia en Paris,31,1,1,1,2.251,1.17,1.081,18,55,6
5a2e19cca3a512000195866a,learner,Midwest,United States,no,NA,1,0,mexican,mismatch,interrogative-partial-wh,Por que odiaba la lluvia,32,1,1,1,1.878,1.17,0.708,18,55,6
5a2e19cca3a512000195866a,learner,Midwest,United States,no,NA,1,0,puertorican,mismatch,interrogative-partial-wh,Cuando miraba la luna,33,1,1,1,2.043,1.1,0.9430000000000001,18,55,6
5a2e19cca3a512000195866a,learner,Midwest,United States,no,NA,1,0,cuban,match,interrogative-partial-wh,Cuando leia el libro,34,1,1,1,1.802,1.18,0.6220000000000001,18,55,6
5a2e19cca3a512000195866a,learner,Midwest,United States,no,NA,1,0,peruvian,mismatch,interrogative-total-yn,El hombre mira la luna,35,1,1,1,2.111,1.45,0.6610000000000003,18,55,6
5a2e19cca3a512000195866a,learner,Midwest,United States,no,NA,1,0,castilian,match,interrogative-partial-wh,Por que hablaba del agua,36,1,1,1,1.923,1.46,0.4630000000000001,18,55,6
5a2e19cca3a512000195866a,learner,Midwest,United States,no,NA,1,0,peruvian,mismatch,interrogative-total-yn,Mi novio viene del lago,37,1,1,1,2.127,1.63,0.4969999999999999,18,55,6
5a2e19cca3a512000195866a,learner,Midwest,United States,no,NA,1,0,andalusian,match,interrogative-partial-wh,Cuando bebia el vino,38,1,0,0,1.954,1.27,0.6839999999999999,18,55,6
5a2e19cca3a512000195866a,learner,Midwest,United States,no,NA,1,0,cuban,mismatch,interrogative-total-yn,El nino oye el rio,39,1,0,0,1.528,1.06,0.46799999999999997,18,55,6
5a2e19cca3a512000195866a,learner,Midwest,United States,no,NA,1,0,mexican,match,interrogative-total-yn,Maria bebe el vino,40,1,1,1,1.62,1.18,0.44000000000000017,18,55,6
5a2e19cca3a512000195866a,learner,Midwest,United States,no,NA,1,0,chilean,match,interrogative-total-yn,Manuela vende el carro,41,1,1,1,1.829,1.29,0.5389999999999999,18,55,6
5a2e19cca3a512000195866a,learner,Midwest,United States,no,NA,1,0,puertorican,match,declarative-narrow-focus,Marta abre el regalo,42,0,0,1,1.672,1.16,0.512,18,55,6
5a2e19cca3a512000195866a,learner,Midwest,United States,no,NA,1,0,andalusian,match,declarative-narrow-focus,Mariano habla del tiempo,43,0,0,1,2.159,1.64,0.5189999999999999,18,55,6
5a2e19cca3a512000195866a,learner,Midwest,United States,no,NA,1,0,argentine,mismatch,declarative-broad-focus,Mi madre come la fruta,44,0,0,1,1.882,1.52,0.3619999999999999,18,55,6
5a2e19cca3a512000195866a,learner,Midwest,United States,no,NA,1,0,andalusian,match,declarative-narrow-focus,Daniel iba a Bolivia,45,0,0,1,1.789,1.31,0.47899999999999987,18,55,6
5a2e19cca3a512000195866a,learner,Midwest,United States,no,NA,1,0,cuban,mismatch,interrogative-total-yn,Mi tia odia la lluvia,46,1,0,0,1.862,1.22,0.6420000000000001,18,55,6
5a2e19cca3a512000195866a,learner,Midwest,United States,no,NA,1,0,andalusian,mismatch,declarative-narrow-focus,La maestra vive en Paris,47,0,0,1,1.501,1.19,0.31099999999999994,18,55,6
5a2e19cca3a512000195866a,learner,Midwest,United States,no,NA,1,0,chilean,mismatch,interrogative-total-yn,El bebe comia muy bien,48,1,0,0,2.208,1.42,0.7880000000000003,18,55,6
5a2e19cca3a512000195866a,learner,Midwest,United States,no,NA,1,0,mexican,match,declarative-narrow-focus,Maria bebe el vino,49,0,0,1,1.964,1.08,0.8839999999999999,18,55,6
5a2e19cca3a512000195866a,learner,Midwest,United States,no,NA,1,0,cuban,match,interrogative-partial-wh,Por que ama la navidad,50,1,1,1,1.599,1.17,0.42900000000000005,18,55,6
5a2e19cca3a512000195866a,learner,Midwest,United States,no,NA,1,0,castilian,match,declarative-broad-focus,Ana lleva el abrigo,51,0,0,1,1.511,1.26,0.2509999999999999,18,55,6
5a2e19cca3a512000195866a,learner,Midwest,United States,no,NA,1,0,chilean,mismatch,interrogative-partial-wh,Cuando comia la fruta,52,1,1,1,3.191,1.24,1.9509999999999998,18,55,6
5a2e19cca3a512000195866a,learner,Midwest,United States,no,NA,1,0,puertorican,mismatch,interrogative-total-yn,La nina lava el plato,53,1,0,0,1.98,1.16,0.8200000000000001,18,55,6
5a2e19cca3a512000195866a,learner,Midwest,United States,no,NA,1,0,chilean,match,interrogative-total-yn,Marta abre el regalo,54,1,0,0,3.179,1.26,1.9189999999999998,18,55,6
5a2e19cca3a512000195866a,learner,Midwest,United States,no,NA,1,0,mexican,mismatch,declarative-broad-focus,La maestra vive en Paris,55,0,0,1,2.664,1.2,1.4640000000000002,18,55,6
5a2e19cca3a512000195866a,learner,Midwest,United States,no,NA,1,0,andalusian,mismatch,declarative-narrow-focus,Mi tia odia la lluvia,56,0,0,1,1.956,1.36,0.5959999999999999,18,55,6
5a2e19cca3a512000195866a,learner,Midwest,United States,no,NA,1,0,argentine,mismatch,interrogative-partial-wh,Por que desayuna muy bien,57,1,1,1,1.656,1.34,0.31599999999999984,18,55,6
5a2e19cca3a512000195866a,learner,Midwest,United States,no,NA,1,0,andalusian,mismatch,interrogative-total-yn,La maestra vive en Paris,58,1,1,1,2.191,1.37,0.8209999999999997,18,55,6
5a2e19cca3a512000195866a,learner,Midwest,United States,no,NA,1,0,castilian,match,interrogative-total-yn,Daniel iba a Bolivia,59,1,1,1,1.79,1.29,0.5,18,55,6
5a2e19cca3a512000195866a,learner,Midwest,United States,no,NA,1,0,castilian,match,declarative-narrow-focus,Ana lleva el abrigo,60,0,1,0,1.966,1.22,0.746,18,55,6
5a2e19cca3a512000195866a,learner,Midwest,United States,no,NA,1,0,castilian,match,declarative-narrow-focus,Emilio ama la marcha,61,0,0,1,1.93,1.36,0.5699999999999998,18,55,6
5a2e19cca3a512000195866a,learner,Midwest,United States,no,NA,1,0,mexican,match,interrogative-total-yn,Ana lleva el abrigo,62,1,1,1,1.513,1.15,0.363,18,55,6
5a2e19cca3a512000195866a,learner,Midwest,United States,no,NA,1,0,andalusian,mismatch,interrogative-partial-wh,Por que venia del lago,63,1,0,0,1.724,1.29,0.43399999999999994,18,55,6
5adfbd52f6b58c0001fa8f3c,learner,South,I am not familiar with Spanish,no,NA,1,0,mexican,match,declarative-broad-focus,Manuela vende el carro,0,0,0,1,1.576335,1.15,0.42633500000000013,58,54.166666666666664,5
5adfbd52f6b58c0001fa8f3c,learner,South,I am not familiar with Spanish,no,NA,1,0,mexican,match,interrogative-partial-wh,Por que hablaba del agua,1,1,0,0,1.63813,1.21,0.4281300000000001,58,54.166666666666664,5
5adfbd52f6b58c0001fa8f3c,learner,South,I am not familiar with Spanish,no,NA,1,0,chilean,mismatch,declarative-broad-focus,Mi tia odia la lluvia,2,0,0,1,1.83639,1.34,0.4963899999999999,58,54.166666666666664,5
5adfbd52f6b58c0001fa8f3c,learner,South,I am not familiar with Spanish,no,NA,1,0,chilean,match,interrogative-partial-wh,Por que ama la navidad,3,1,1,1,1.872165,1.19,0.6821650000000001,58,54.166666666666664,5
5adfbd52f6b58c0001fa8f3c,learner,South,I am not familiar with Spanish,no,NA,1,0,puertorican,match,interrogative-total-yn,Marta abre el regalo,4,1,0,0,1.78525,1.15,0.6352500000000001,58,54.166666666666664,5
5adfbd52f6b58c0001fa8f3c,learner,South,I am not familiar with Spanish,no,NA,1,0,cuban,match,interrogative-partial-wh,Cuando vendia el carro,5,1,0,0,1.98263,1.16,0.82263,58,54.166666666666664,5
5adfbd52f6b58c0001fa8f3c,learner,South,I am not familiar with Spanish,no,NA,1,0,andalusian,mismatch,declarative-narrow-focus,El bebe comia muy bien,6,0,1,0,1.60901,1.31,0.29901,58,54.166666666666664,5
5adfbd52f6b58c0001fa8f3c,learner,South,I am not familiar with Spanish,no,NA,1,0,cuban,match,interrogative-total-yn,Mariano habla del tiempo,7,1,0,0,1.88367,1.44,0.44367,58,54.166666666666664,5
5adfbd52f6b58c0001fa8f3c,learner,South,I am not familiar with Spanish,no,NA,1,0,mexican,match,interrogative-partial-wh,Por que iba a Bolivia,8,1,1,1,1.714575,1.24,0.47457499999999997,58,54.166666666666664,5
5adfbd52f6b58c0001fa8f3c,learner,South,I am not familiar with Spanish,no,NA,1,0,chilean,match,declarative-narrow-focus,Maria bebe el vino,9,0,0,1,1.62859,0.98,0.64859,58,54.166666666666664,5
5adfbd52f6b58c0001fa8f3c,learner,South,I am not familiar with Spanish,no,NA,1,0,andalusian,match,interrogative-total-yn,David leia el libro,10,1,1,1,1.68308,1.25,0.4330799999999999,58,54.166666666666664,5
5adfbd52f6b58c0001fa8f3c,learner,South,I am not familiar with Spanish,no,NA,1,0,puertorican,mismatch,interrogative-total-yn,El hombre mira la luna,11,1,0,0,1.76557,1.22,0.5455700000000001,58,54.166666666666664,5
5adfbd52f6b58c0001fa8f3c,learner,South,I am not familiar with Spanish,no,NA,1,0,puertorican,mismatch,declarative-broad-focus,La maestra vive en Paris,12,0,0,1,1.981405,1.21,0.7714050000000001,58,54.166666666666664,5
5adfbd52f6b58c0001fa8f3c,learner,South,I am not familiar with Spanish,no,NA,1,0,castilian,match,declarative-broad-focus,Mariano habla del tiempo,13,0,0,1,2.11498,1.61,0.50498,58,54.166666666666664,5
5adfbd52f6b58c0001fa8f3c,learner,South,I am not familiar with Spanish,no,NA,1,0,argentine,match,interrogative-total-yn,Maria bebe el vino,14,1,1,1,1.647755,1.26,0.38775500000000007,58,54.166666666666664,5
5adfbd52f6b58c0001fa8f3c,learner,South,I am not familiar with Spanish,no,NA,1,0,chilean,mismatch,declarative-broad-focus,La nina lava el plato,15,0,0,1,1.502285,1.06,0.44228500000000004,58,54.166666666666664,5
5adfbd52f6b58c0001fa8f3c,learner,South,I am not familiar with Spanish,no,NA,1,0,peruvian,mismatch,interrogative-partial-wh,Por que oia el rio,16,1,1,1,1.818605,1.4,0.4186050000000001,58,54.166666666666664,5
5adfbd52f6b58c0001fa8f3c,learner,South,I am not familiar with Spanish,no,NA,1,0,mexican,match,declarative-broad-focus,Marta abre el regalo,17,0,0,1,2.129875,1.12,1.009875,58,54.166666666666664,5
5adfbd52f6b58c0001fa8f3c,learner,South,I am not familiar with Spanish,no,NA,1,0,castilian,match,interrogative-partial-wh,Cuando leia el libro,18,1,1,1,1.687355,1.38,0.30735500000000004,58,54.166666666666664,5
5adfbd52f6b58c0001fa8f3c,learner,South,I am not familiar with Spanish,no,NA,1,0,peruvian,match,declarative-broad-focus,Daniel iba a Bolivia,19,0,1,0,2.34994,1.44,0.9099400000000002,58,54.166666666666664,5
5adfbd52f6b58c0001fa8f3c,learner,South,I am not familiar with Spanish,no,NA,1,0,cuban,mismatch,interrogative-total-yn,Mi tia odia la lluvia,20,1,0,0,1.79026,1.22,0.57026,58,54.166666666666664,5
5adfbd52f6b58c0001fa8f3c,learner,South,I am not familiar with Spanish,no,NA,1,0,argentine,mismatch,declarative-broad-focus,El nino oye el rio,21,0,1,0,2.378805,1.56,0.8188049999999998,58,54.166666666666664,5
5adfbd52f6b58c0001fa8f3c,learner,South,I am not familiar with Spanish,no,NA,1,0,puertorican,match,declarative-broad-focus,Ana lleva el abrigo,22,0,0,1,1.80999,1.05,0.7599899999999999,58,54.166666666666664,5
5adfbd52f6b58c0001fa8f3c,learner,South,I am not familiar with Spanish,no,NA,1,0,cuban,mismatch,declarative-narrow-focus,El hombre mira la luna,23,0,0,1,1.620455,1.22,0.400455,58,54.166666666666664,5
5adfbd52f6b58c0001fa8f3c,learner,South,I am not familiar with Spanish,no,NA,1,0,castilian,mismatch,interrogative-partial-wh,Cuando lavaba el plato,24,1,1,1,1.60409,1.33,0.27408999999999994,58,54.166666666666664,5
5adfbd52f6b58c0001fa8f3c,learner,South,I am not familiar with Spanish,no,NA,1,0,castilian,match,interrogative-partial-wh,Cuando lleva el abrigo,25,1,1,1,1.59128,1.28,0.31128,58,54.166666666666664,5
5adfbd52f6b58c0001fa8f3c,learner,South,I am not familiar with Spanish,no,NA,1,0,puertorican,mismatch,declarative-narrow-focus,La maestra vive en Paris,26,0,0,1,1.682705,1.19,0.49270499999999995,58,54.166666666666664,5
5adfbd52f6b58c0001fa8f3c,learner,South,I am not familiar with Spanish,no,NA,1,0,argentine,mismatch,interrogative-partial-wh,Por que desayuna muy bien,27,1,1,1,1.54183,1.34,0.20182999999999995,58,54.166666666666664,5
5adfbd52f6b58c0001fa8f3c,learner,South,I am not familiar with Spanish,no,NA,1,0,puertorican,match,declarative-narrow-focus,David leia el libro,28,0,0,1,1.587945,1.05,0.5379449999999999,58,54.166666666666664,5
5adfbd52f6b58c0001fa8f3c,learner,South,I am not familiar with Spanish,no,NA,1,0,castilian,mismatch,interrogative-partial-wh,Por que venia del lago,29,1,1,1,1.65182,1.45,0.2018200000000001,58,54.166666666666664,5
5adfbd52f6b58c0001fa8f3c,learner,South,I am not familiar with Spanish,no,NA,1,0,castilian,mismatch,declarative-narrow-focus,Mi novio viene del lago,30,0,1,0,1.73041,1.49,0.24041,58,54.166666666666664,5
5adfbd52f6b58c0001fa8f3c,learner,South,I am not familiar with Spanish,no,NA,1,0,andalusian,mismatch,declarative-broad-focus,El bebe comia muy bien,31,0,0,1,1.569445,1.33,0.2394449999999999,58,54.166666666666664,5
5adfbd52f6b58c0001fa8f3c,learner,South,I am not familiar with Spanish,no,NA,1,0,chilean,mismatch,interrogative-total-yn,Mi madre come la fruta,32,1,1,1,1.52017,1.29,0.23016999999999999,58,54.166666666666664,5
5adfbd52f6b58c0001fa8f3c,learner,South,I am not familiar with Spanish,no,NA,1,0,argentine,match,declarative-narrow-focus,Ana lleva el abrigo,33,0,0,1,1.662635,1.16,0.5026350000000002,58,54.166666666666664,5
5adfbd52f6b58c0001fa8f3c,learner,South,I am not familiar with Spanish,no,NA,1,0,cuban,mismatch,declarative-narrow-focus,Mi tia odia la lluvia,34,0,0,1,2.009945,1.3,0.709945,58,54.166666666666664,5
5adfbd52f6b58c0001fa8f3c,learner,South,I am not familiar with Spanish,no,NA,1,0,peruvian,match,interrogative-total-yn,Emilio ama la marcha,35,1,1,1,1.80054,1.5,0.30054000000000003,58,54.166666666666664,5
5adfbd52f6b58c0001fa8f3c,learner,South,I am not familiar with Spanish,no,NA,1,0,argentine,match,declarative-broad-focus,David leia el libro,36,0,0,1,1.648615,1.34,0.30861499999999986,58,54.166666666666664,5
5adfbd52f6b58c0001fa8f3c,learner,South,I am not familiar with Spanish,no,NA,1,0,mexican,mismatch,interrogative-total-yn,El nino oye el rio,37,1,1,1,1.5959700000000001,1.15,0.4459700000000002,58,54.166666666666664,5
5adfbd52f6b58c0001fa8f3c,learner,South,I am not familiar with Spanish,no,NA,1,0,chilean,mismatch,interrogative-total-yn,El bebe comia muy bien,38,1,1,1,1.69673,1.42,0.27673000000000014,58,54.166666666666664,5
5adfbd52f6b58c0001fa8f3c,learner,South,I am not familiar with Spanish,no,NA,1,0,puertorican,match,interrogative-partial-wh,Cuando bebia el vino,39,1,0,0,1.51243,1.07,0.4424299999999999,58,54.166666666666664,5
5adfbd52f6b58c0001fa8f3c,learner,South,I am not familiar with Spanish,no,NA,1,0,puertorican,match,declarative-broad-focus,Maria bebe el vino,40,0,0,1,1.5079,1.13,0.3779000000000001,58,54.166666666666664,5
5adfbd52f6b58c0001fa8f3c,learner,South,I am not familiar with Spanish,no,NA,1,0,mexican,mismatch,interrogative-partial-wh,Cuando miraba la luna,41,1,0,0,1.651665,1.05,0.6016649999999999,58,54.166666666666664,5
5adfbd52f6b58c0001fa8f3c,learner,South,I am not familiar with Spanish,no,NA,1,0,argentine,mismatch,declarative-narrow-focus,El nino oye el rio,42,0,1,0,1.62346,1.35,0.2734599999999998,58,54.166666666666664,5
5adfbd52f6b58c0001fa8f3c,learner,South,I am not familiar with Spanish,no,NA,1,0,argentine,match,declarative-narrow-focus,Daniel iba a Bolivia,43,0,0,1,1.756775,1.27,0.48677499999999996,58,54.166666666666664,5
5adfbd52f6b58c0001fa8f3c,learner,South,I am not familiar with Spanish,no,NA,1,0,peruvian,mismatch,declarative-narrow-focus,La nina lava el plato,44,0,1,0,1.951735,1.62,0.3317349999999999,58,54.166666666666664,5
5adfbd52f6b58c0001fa8f3c,learner,South,I am not familiar with Spanish,no,NA,1,0,castilian,match,declarative-narrow-focus,Mariano habla del tiempo,45,0,0,1,2.181425,1.56,0.6214249999999999,58,54.166666666666664,5
5adfbd52f6b58c0001fa8f3c,learner,South,I am not familiar with Spanish,no,NA,1,0,castilian,match,declarative-narrow-focus,Manuela vende el carro,46,0,0,1,1.686135,1.44,0.246135,58,54.166666666666664,5
5adfbd52f6b58c0001fa8f3c,learner,South,I am not familiar with Spanish,no,NA,1,0,andalusian,mismatch,declarative-broad-focus,El hombre mira la luna,47,0,0,1,1.98232,1.25,0.7323200000000001,58,54.166666666666664,5
5adfbd52f6b58c0001fa8f3c,learner,South,I am not familiar with Spanish,no,NA,1,0,andalusian,match,interrogative-partial-wh,Por que abre el regalo,48,1,1,1,1.366085,1.21,0.15608500000000003,58,54.166666666666664,5
5adfbd52f6b58c0001fa8f3c,learner,South,I am not familiar with Spanish,no,NA,1,0,peruvian,match,declarative-narrow-focus,Marta abre el regalo,49,0,0,1,2.056605,1.37,0.6866049999999997,58,54.166666666666664,5
5adfbd52f6b58c0001fa8f3c,learner,South,I am not familiar with Spanish,no,NA,1,0,chilean,match,interrogative-total-yn,Manuela vende el carro,50,1,0,0,1.76672,1.29,0.47672000000000003,58,54.166666666666664,5
5adfbd52f6b58c0001fa8f3c,learner,South,I am not familiar with Spanish,no,NA,1,0,puertorican,match,interrogative-total-yn,Ana lleva el abrigo,51,1,1,1,1.79476,1.04,0.7547599999999999,58,54.166666666666664,5
5adfbd52f6b58c0001fa8f3c,learner,South,I am not familiar with Spanish,no,NA,1,0,mexican,mismatch,declarative-narrow-focus,Mi madre come la fruta,52,0,0,1,1.699125,1.27,0.429125,58,54.166666666666664,5
5adfbd52f6b58c0001fa8f3c,learner,South,I am not familiar with Spanish,no,NA,1,0,mexican,mismatch,interrogative-total-yn,La nina lava el plato,53,1,0,0,1.548295,1.25,0.298295,58,54.166666666666664,5
5adfbd52f6b58c0001fa8f3c,learner,South,I am not familiar with Spanish,no,NA,1,0,chilean,match,declarative-broad-focus,Emilio ama la marcha,54,0,0,1,1.82376,1.29,0.53376,58,54.166666666666664,5
5adfbd52f6b58c0001fa8f3c,learner,South,I am not familiar with Spanish,no,NA,1,0,castilian,mismatch,interrogative-partial-wh,Por que odiaba la lluvia,55,1,1,1,1.848665,1.55,0.29866499999999996,58,54.166666666666664,5
5adfbd52f6b58c0001fa8f3c,learner,South,I am not familiar with Spanish,no,NA,1,0,andalusian,match,declarative-narrow-focus,Emilio ama la marcha,56,0,0,1,1.756115,1.48,0.2761150000000001,58,54.166666666666664,5
5adfbd52f6b58c0001fa8f3c,learner,South,I am not familiar with Spanish,no,NA,1,0,mexican,mismatch,declarative-broad-focus,Mi madre come la fruta,57,0,0,1,1.8772,1.26,0.6172,58,54.166666666666664,5
5adfbd52f6b58c0001fa8f3c,learner,South,I am not familiar with Spanish,no,NA,1,0,argentine,mismatch,interrogative-partial-wh,Cuando comia la fruta,58,1,0,0,1.69917,1.32,0.37917,58,54.166666666666664,5
5adfbd52f6b58c0001fa8f3c,learner,South,I am not familiar with Spanish,no,NA,1,0,mexican,mismatch,interrogative-total-yn,La maestra vive en Paris,59,1,1,1,1.981855,1.43,0.551855,58,54.166666666666664,5
5adfbd52f6b58c0001fa8f3c,learner,South,I am not familiar with Spanish,no,NA,1,0,mexican,match,interrogative-total-yn,Daniel iba a Bolivia,60,1,1,1,2.14913,1.33,0.8191299999999999,58,54.166666666666664,5
5adfbd52f6b58c0001fa8f3c,learner,South,I am not familiar with Spanish,no,NA,1,0,andalusian,mismatch,interrogative-partial-wh,Por que vivia en Paris,61,1,1,1,1.44336,1.17,0.27336000000000005,58,54.166666666666664,5
5adfbd52f6b58c0001fa8f3c,learner,South,I am not familiar with Spanish,no,NA,1,0,andalusian,mismatch,declarative-broad-focus,Mi novio viene del lago,62,0,0,1,1.64808,1.48,0.16808,58,54.166666666666664,5
5adfbd52f6b58c0001fa8f3c,learner,South,I am not familiar with Spanish,no,NA,1,0,mexican,mismatch,interrogative-total-yn,Mi novio viene del lago,63,1,1,1,1.825035,1.29,0.5350349999999999,58,54.166666666666664,5
5aea962d0ef2f20001858c9c,learner,West coast,I am not familiar with Spanish,no,NA,1,0,peruvian,match,declarative-broad-focus,David leia el libro,0,0,0,1,1.806,1.43,0.3760000000000001,24,48.33333333333333,-2
5aea962d0ef2f20001858c9c,learner,West coast,I am not familiar with Spanish,no,NA,1,0,cuban,match,declarative-narrow-focus,Mariano habla del tiempo,1,0,0,1,1.593,1.24,0.353,24,48.33333333333333,-2
5aea962d0ef2f20001858c9c,learner,West coast,I am not familiar with Spanish,no,NA,1,0,mexican,mismatch,interrogative-total-yn,Mi madre come la fruta,2,1,1,1,1.584,1.26,0.32400000000000007,24,48.33333333333333,-2
5aea962d0ef2f20001858c9c,learner,West coast,I am not familiar with Spanish,no,NA,1,0,argentine,mismatch,declarative-broad-focus,La maestra vive en Paris,3,0,0,1,1.84,1.43,0.41000000000000014,24,48.33333333333333,-2
5aea962d0ef2f20001858c9c,learner,West coast,I am not familiar with Spanish,no,NA,1,0,castilian,match,interrogative-partial-wh,Por que iba a Bolivia,4,1,1,1,1.836,1.45,0.3860000000000001,24,48.33333333333333,-2
5aea962d0ef2f20001858c9c,learner,West coast,I am not familiar with Spanish,no,NA,1,0,mexican,mismatch,declarative-broad-focus,Mi novio viene del lago,5,0,0,1,1.77,1.14,0.6300000000000001,24,48.33333333333333,-2
5aea962d0ef2f20001858c9c,learner,West coast,I am not familiar with Spanish,no,NA,1,0,peruvian,match,declarative-broad-focus,Maria bebe el vino,6,0,0,1,1.758,1.36,0.3979999999999999,24,48.33333333333333,-2
5aea962d0ef2f20001858c9c,learner,West coast,I am not familiar with Spanish,no,NA,1,0,castilian,match,declarative-narrow-focus,Maria bebe el vino,7,0,0,1,1.72,1.31,0.4099999999999999,24,48.33333333333333,-2
5aea962d0ef2f20001858c9c,learner,West coast,I am not familiar with Spanish,no,NA,1,0,mexican,mismatch,interrogative-total-yn,La nina lava el plato,8,1,1,1,1.641,1.25,0.391,24,48.33333333333333,-2
5aea962d0ef2f20001858c9c,learner,West coast,I am not familiar with Spanish,no,NA,1,0,andalusian,mismatch,declarative-broad-focus,Mi madre come la fruta,9,0,0,1,1.717,1.31,0.40700000000000003,24,48.33333333333333,-2
5aea962d0ef2f20001858c9c,learner,West coast,I am not familiar with Spanish,no,NA,1,0,chilean,mismatch,interrogative-total-yn,El hombre mira la luna,10,1,1,1,1.738,1.18,0.558,24,48.33333333333333,-2
5aea962d0ef2f20001858c9c,learner,West coast,I am not familiar with Spanish,no,NA,1,0,chilean,mismatch,declarative-broad-focus,El hombre mira la luna,11,0,0,1,1.704,1.12,0.5839999999999999,24,48.33333333333333,-2
5aea962d0ef2f20001858c9c,learner,West coast,I am not familiar with Spanish,no,NA,1,0,castilian,match,interrogative-partial-wh,Cuando lleva el abrigo,12,1,1,1,1.829,1.28,0.5489999999999999,24,48.33333333333333,-2
5aea962d0ef2f20001858c9c,learner,West coast,I am not familiar with Spanish,no,NA,1,0,mexican,match,declarative-narrow-focus,Marta abre el regalo,13,0,0,1,1.543,1.15,0.393,24,48.33333333333333,-2
5aea962d0ef2f20001858c9c,learner,West coast,I am not familiar with Spanish,no,NA,1,0,castilian,mismatch,interrogative-total-yn,El bebe comia muy bien,14,1,1,1,1.693,1.47,0.2230000000000001,24,48.33333333333333,-2
5aea962d0ef2f20001858c9c,learner,West coast,I am not familiar with Spanish,no,NA,1,0,chilean,match,interrogative-total-yn,Ana lleva el abrigo,15,1,1,1,1.604,1.24,0.3640000000000001,24,48.33333333333333,-2
5aea962d0ef2f20001858c9c,learner,West coast,I am not familiar with Spanish,no,NA,1,0,peruvian,match,interrogative-partial-wh,Cuando bebia el vino,16,1,0,0,1.703,1.37,0.33299999999999996,24,48.33333333333333,-2
5aea962d0ef2f20001858c9c,learner,West coast,I am not familiar with Spanish,no,NA,1,0,puertorican,mismatch,declarative-narrow-focus,La nina lava el plato,17,0,0,1,1.572,1.14,0.43200000000000016,24,48.33333333333333,-2
5aea962d0ef2f20001858c9c,learner,West coast,I am not familiar with Spanish,no,NA,1,0,andalusian,match,declarative-narrow-focus,Daniel iba a Bolivia,18,0,0,1,1.702,1.31,0.3919999999999999,24,48.33333333333333,-2
5aea962d0ef2f20001858c9c,learner,West coast,I am not familiar with Spanish,no,NA,1,0,chilean,mismatch,interrogative-total-yn,El nino oye el rio,19,1,0,0,1.668,1.27,0.3979999999999999,24,48.33333333333333,-2
5aea962d0ef2f20001858c9c,learner,West coast,I am not familiar with Spanish,no,NA,1,0,peruvian,mismatch,interrogative-total-yn,La maestra vive en Paris,20,1,1,1,1.961,1.73,0.2310000000000001,24,48.33333333333333,-2
5aea962d0ef2f20001858c9c,learner,West coast,I am not familiar with Spanish,no,NA,1,0,argentine,mismatch,interrogative-partial-wh,Por que desayuna muy bien,21,1,0,0,1.655,1.34,0.31499999999999995,24,48.33333333333333,-2
5aea962d0ef2f20001858c9c,learner,West coast,I am not familiar with Spanish,no,NA,1,0,peruvian,mismatch,declarative-broad-focus,Mi tia odia la lluvia,22,0,0,1,2.007,1.64,0.3670000000000002,24,48.33333333333333,-2
5aea962d0ef2f20001858c9c,learner,West coast,I am not familiar with Spanish,no,NA,1,0,argentine,match,interrogative-total-yn,Marta abre el regalo,23,1,0,0,1.793,1.34,0.45299999999999985,24,48.33333333333333,-2
5aea962d0ef2f20001858c9c,learner,West coast,I am not familiar with Spanish,no,NA,1,0,cuban,mismatch,interrogative-partial-wh,Por que odiaba la lluvia,24,1,0,0,1.788,1.38,0.40800000000000014,24,48.33333333333333,-2
5aea962d0ef2f20001858c9c,learner,West coast,I am not familiar with Spanish,no,NA,1,0,argentine,mismatch,declarative-narrow-focus,Mi novio viene del lago,25,0,0,1,1.745,1.3,0.44500000000000006,24,48.33333333333333,-2
5aea962d0ef2f20001858c9c,learner,West coast,I am not familiar with Spanish,no,NA,1,0,chilean,match,declarative-narrow-focus,Ana lleva el abrigo,26,0,0,1,1.493,1.08,0.41300000000000003,24,48.33333333333333,-2
5aea962d0ef2f20001858c9c,learner,West coast,I am not familiar with Spanish,no,NA,1,0,andalusian,match,declarative-broad-focus,Manuela vende el carro,27,0,0,1,1.786,1.25,0.536,24,48.33333333333333,-2
5aea962d0ef2f20001858c9c,learner,West coast,I am not familiar with Spanish,no,NA,1,0,castilian,match,interrogative-total-yn,Mariano habla del tiempo,28,1,1,1,1.834,1.58,0.254,24,48.33333333333333,-2
5aea962d0ef2f20001858c9c,learner,West coast,I am not familiar with Spanish,no,NA,1,0,castilian,match,interrogative-total-yn,Emilio ama la marcha,29,1,1,1,1.794,1.44,0.3540000000000001,24,48.33333333333333,-2
5aea962d0ef2f20001858c9c,learner,West coast,I am not familiar with Spanish,no,NA,1,0,chilean,match,declarative-broad-focus,Ana lleva el abrigo,30,0,0,1,1.429,1.1,0.32899999999999996,24,48.33333333333333,-2
5aea962d0ef2f20001858c9c,learner,West coast,I am not familiar with Spanish,no,NA,1,0,puertorican,match,declarative-broad-focus,Daniel iba a Bolivia,31,0,0,1,1.944,1.2,0.744,24,48.33333333333333,-2
5aea962d0ef2f20001858c9c,learner,West coast,I am not familiar with Spanish,no,NA,1,0,andalusian,match,interrogative-total-yn,David leia el libro,32,1,1,1,1.786,1.25,0.536,24,48.33333333333333,-2
5aea962d0ef2f20001858c9c,learner,West coast,I am not familiar with Spanish,no,NA,1,0,argentine,match,declarative-broad-focus,Mariano habla del tiempo,33,0,0,1,1.887,1.28,0.607,24,48.33333333333333,-2
5aea962d0ef2f20001858c9c,learner,West coast,I am not familiar with Spanish,no,NA,1,0,chilean,mismatch,declarative-narrow-focus,Mi tia odia la lluvia,34,0,0,1,1.803,1.44,0.363,24,48.33333333333333,-2
5aea962d0ef2f20001858c9c,learner,West coast,I am not familiar with Spanish,no,NA,1,0,puertorican,mismatch,declarative-narrow-focus,La maestra vive en Paris,35,0,0,1,1.636,1.19,0.44599999999999995,24,48.33333333333333,-2
5aea962d0ef2f20001858c9c,learner,West coast,I am not familiar with Spanish,no,NA,1,0,cuban,mismatch,declarative-broad-focus,El nino oye el rio,36,0,0,1,1.804,1.39,0.41400000000000015,24,48.33333333333333,-2
5aea962d0ef2f20001858c9c,learner,West coast,I am not familiar with Spanish,no,NA,1,0,peruvian,mismatch,interrogative-partial-wh,Por que venia del lago,37,1,1,1,1.79,1.43,0.3600000000000001,24,48.33333333333333,-2
5aea962d0ef2f20001858c9c,learner,West coast,I am not familiar with Spanish,no,NA,1,0,andalusian,match,interrogative-total-yn,Maria bebe el vino,38,1,1,1,1.778,1.15,0.6280000000000001,24,48.33333333333333,-2
5aea962d0ef2f20001858c9c,learner,West coast,I am not familiar with Spanish,no,NA,1,0,peruvian,mismatch,declarative-broad-focus,La nina lava el plato,39,0,0,1,2.022,1.5,0.5219999999999998,24,48.33333333333333,-2
5aea962d0ef2f20001858c9c,learner,West coast,I am not familiar with Spanish,no,NA,1,0,castilian,match,declarative-broad-focus,Emilio ama la marcha,40,0,0,1,1.872,1.4,0.4720000000000002,24,48.33333333333333,-2
5aea962d0ef2f20001858c9c,learner,West coast,I am not familiar with Spanish,no,NA,1,0,andalusian,match,interrogative-total-yn,Manuela vende el carro,41,1,1,1,1.803,1.33,0.47299999999999986,24,48.33333333333333,-2
5aea962d0ef2f20001858c9c,learner,West coast,I am not familiar with Spanish,no,NA,1,0,castilian,mismatch,declarative-broad-focus,El bebe comia muy bien,42,0,0,1,2.21,1.6,0.6099999999999999,24,48.33333333333333,-2
5aea962d0ef2f20001858c9c,learner,West coast,I am not familiar with Spanish,no,NA,1,0,castilian,match,declarative-broad-focus,Marta abre el regalo,43,0,0,1,1.908,1.4,0.508,24,48.33333333333333,-2
5aea962d0ef2f20001858c9c,learner,West coast,I am not familiar with Spanish,no,NA,1,0,argentine,match,interrogative-partial-wh,Por que ama la navidad,44,1,0,0,1.755,1.26,0.4949999999999999,24,48.33333333333333,-2
5aea962d0ef2f20001858c9c,learner,West coast,I am not familiar with Spanish,no,NA,1,0,mexican,mismatch,interrogative-partial-wh,Cuando miraba la luna,45,1,0,0,1.745,1.05,0.6950000000000001,24,48.33333333333333,-2
5aea962d0ef2f20001858c9c,learner,West coast,I am not familiar with Spanish,no,NA,1,0,mexican,mismatch,declarative-narrow-focus,El nino oye el rio,46,0,0,1,1.768,1.23,0.538,24,48.33333333333333,-2
5aea962d0ef2f20001858c9c,learner,West coast,I am not familiar with Spanish,no,NA,1,0,mexican,match,interrogative-partial-wh,Por que abre el regalo,47,1,0,0,1.626,1.13,0.496,24,48.33333333333333,-2
5aea962d0ef2f20001858c9c,learner,West coast,I am not familiar with Spanish,no,NA,1,0,puertorican,mismatch,interrogative-total-yn,Mi tia odia la lluvia,48,1,1,1,1.722,1.35,0.3719999999999999,24,48.33333333333333,-2
5aea962d0ef2f20001858c9c,learner,West coast,I am not familiar with Spanish,no,NA,1,0,andalusian,match,interrogative-partial-wh,Cuando vendia el carro,49,1,1,1,1.819,1.3,0.5189999999999999,24,48.33333333333333,-2
5aea962d0ef2f20001858c9c,learner,West coast,I am not familiar with Spanish,no,NA,1,0,puertorican,match,interrogative-partial-wh,Por que hablaba del agua,50,1,0,0,1.468,1.08,0.3879999999999999,24,48.33333333333333,-2
5aea962d0ef2f20001858c9c,learner,West coast,I am not familiar with Spanish,no,NA,1,0,castilian,match,declarative-narrow-focus,Emilio ama la marcha,51,0,0,1,1.735,1.36,0.375,24,48.33333333333333,-2
5aea962d0ef2f20001858c9c,learner,West coast,I am not familiar with Spanish,no,NA,1,0,mexican,mismatch,declarative-narrow-focus,Mi madre come la fruta,52,0,0,1,1.803,1.27,0.5329999999999999,24,48.33333333333333,-2
5aea962d0ef2f20001858c9c,learner,West coast,I am not familiar with Spanish,no,NA,1,0,castilian,mismatch,declarative-narrow-focus,El hombre mira la luna,53,0,0,1,1.819,1.28,0.5389999999999999,24,48.33333333333333,-2
5aea962d0ef2f20001858c9c,learner,West coast,I am not familiar with Spanish,no,NA,1,0,argentine,match,declarative-narrow-focus,David leia el libro,54,0,0,1,1.695,1.13,0.5650000000000002,24,48.33333333333333,-2
5aea962d0ef2f20001858c9c,learner,West coast,I am not familiar with Spanish,no,NA,1,0,mexican,match,interrogative-partial-wh,Cuando leia el libro,55,1,0,0,1.527,1.03,0.4969999999999999,24,48.33333333333333,-2
5aea962d0ef2f20001858c9c,learner,West coast,I am not familiar with Spanish,no,NA,1,0,cuban,match,declarative-narrow-focus,Manuela vende el carro,56,0,0,1,1.637,1.38,0.2570000000000001,24,48.33333333333333,-2
5aea962d0ef2f20001858c9c,learner,West coast,I am not familiar with Spanish,no,NA,1,0,mexican,mismatch,interrogative-partial-wh,Cuando lavaba el plato,57,1,0,0,1.606,1.06,0.546,24,48.33333333333333,-2
5aea962d0ef2f20001858c9c,learner,West coast,I am not familiar with Spanish,no,NA,1,0,puertorican,mismatch,interrogative-partial-wh,Por que vivia en Paris,58,1,1,1,1.84,1.04,0.8,24,48.33333333333333,-2
