instructions_2afc_loop.thisRepN,instructions_2afc_loop.thisTrialN,instructions_2afc_loop.thisN,instructions_2afc_loop.thisIndex,instructions_2afc_loop.ran,instructions_text,continue_text,participant,study_id,session,Tu variedad del español*,¿Hablas con fluidez otra lengua (sí/no)?*,date,expName,psychopyVersion,OS,frameRate,fbclid,key_resp_2afc_practice.keys,key_resp_2afc_practice.corr,key_resp_2afc_practice.rt,trials_2afc_practice_loop.thisRepN,trials_2afc_practice_loop.thisTrialN,trials_2afc_practice_loop.thisN,trials_2afc_practice_loop.thisIndex,trials_2afc_practice_loop.ran,path,correct_response,key_resp_2afc_trial.keys,key_resp_2afc_trial.corr,key_resp_2afc_trial.rt,trials_2afc_loop.thisRepN,trials_2afc_loop.thisTrialN,trials_2afc_loop.thisN,trials_2afc_loop.thisIndex,trials_2afc_loop.ran,item_num,andalusian,argentine,castilian,chilean,cuban,mexican,peruvian,puertorican
0,0,0,0,1,"En la siguiente tarea vas a escuchar una serie de frases cortas. 

  Vas a decidir si suenan como preguntas o no usando el teclado.",(presiona la barra espaciadora para continuar),299453,and,001,andaluz,Sí,2022-10-29_23h12.25.129,empathy_intonation_perc_sp_and,2022.2.4,Win32,59.71218726,IwAR1aVuHObCOon2G9fdB8NAznvcl2YLTG7d7l_Ex2aInreDVlQReYRali2ck,,,,,,,,,,,,,,,,,,,,,,,,,,,
0,1,1,1,1,"Si crees que el enunciado es una pregunta, teclea '1' (Sí) y si crees que 
  no es una pregunta teclea '0' (no).

  Vamos a practicar...",(presiona la barra espaciadora para continuar),299453,and,001,andaluz,Sí,2022-10-29_23h12.25.129,empathy_intonation_perc_sp_and,2022.2.4,Win32,59.71218726,IwAR1aVuHObCOon2G9fdB8NAznvcl2YLTG7d7l_Ex2aInreDVlQReYRali2ck,,,,,,,,,,,,,,,,,,,,,,,,,,,
,,,,,,,299453,and,001,andaluz,Sí,2022-10-29_23h12.25.129,empathy_intonation_perc_sp_and,2022.2.4,Win32,59.71218726,IwAR1aVuHObCOon2G9fdB8NAznvcl2YLTG7d7l_Ex2aInreDVlQReYRali2ck,0,1,14.3096,0,0,0,5,1,./stim/wavs/andalusian_statement_filler_Alberto-nunca-se-afeita.wav,0,,,,,,,,,,,,,,,,,
,,,,,,,299453,and,001,andaluz,Sí,2022-10-29_23h12.25.129,empathy_intonation_perc_sp_and,2022.2.4,Win32,59.71218726,IwAR1aVuHObCOon2G9fdB8NAznvcl2YLTG7d7l_Ex2aInreDVlQReYRali2ck,1,1,5.8809,0,1,1,0,1,./stim/wavs/castilian_question_filler_Mi-esposo-conoce-al-chico.wav,1,,,,,,,,,,,,,,,,,
,,,,,,,299453,and,001,andaluz,Sí,2022-10-29_23h12.25.129,empathy_intonation_perc_sp_and,2022.2.4,Win32,59.71218726,IwAR1aVuHObCOon2G9fdB8NAznvcl2YLTG7d7l_Ex2aInreDVlQReYRali2ck,0,1,3.2916,0,2,2,6,1,./stim/wavs/peruvian_statement_filler_El-nino-habla-con-su-madre.wav,0,,,,,,,,,,,,,,,,,
,,,,,,,299453,and,001,andaluz,Sí,2022-10-29_23h12.25.129,empathy_intonation_perc_sp_and,2022.2.4,Win32,59.71218726,IwAR1aVuHObCOon2G9fdB8NAznvcl2YLTG7d7l_Ex2aInreDVlQReYRali2ck,1,1,3.2249,0,3,3,3,1,./stim/wavs/mexican_question_filler_Felipe-no-tiene-contrasena.wav,1,,,,,,,,,,,,,,,,,
,,,,,,,299453,and,001,andaluz,Sí,2022-10-29_23h12.25.129,empathy_intonation_perc_sp_and,2022.2.4,Win32,59.71218726,IwAR1aVuHObCOon2G9fdB8NAznvcl2YLTG7d7l_Ex2aInreDVlQReYRali2ck,0,1,3.742,0,4,4,4,1,./stim/wavs/cuban_statement_filler_Cocinabas-por-la-noche.wav,0,,,,,,,,,,,,,,,,,
,,,,,,,299453,and,001,andaluz,Sí,2022-10-29_23h12.25.129,empathy_intonation_perc_sp_and,2022.2.4,Win32,59.71218726,IwAR1aVuHObCOon2G9fdB8NAznvcl2YLTG7d7l_Ex2aInreDVlQReYRali2ck,0,1,5.9034,0,5,5,7,1,./stim/wavs/puertorican_statement_filler_La-nina-pinta-con-su-amiga.wav,0,,,,,,,,,,,,,,,,,
,,,,,,,299453,and,001,andaluz,Sí,2022-10-29_23h12.25.129,empathy_intonation_perc_sp_and,2022.2.4,Win32,59.71218726,IwAR1aVuHObCOon2G9fdB8NAznvcl2YLTG7d7l_Ex2aInreDVlQReYRali2ck,1,1,2.1398,0,6,6,2,1,./stim/wavs/chilean_question_filler_Mi-padre-cantaba-bien.wav,1,,,,,,,,,,,,,,,,,
,,,,,,,299453,and,001,andaluz,Sí,2022-10-29_23h12.25.129,empathy_intonation_perc_sp_and,2022.2.4,Win32,59.71218726,IwAR1aVuHObCOon2G9fdB8NAznvcl2YLTG7d7l_Ex2aInreDVlQReYRali2ck,1,1,2.2596,0,7,7,1,1,./stim/wavs/argentine_question_filler_Mi-vecino-habla-mucho.wav,1,,,,,,,,,,,,,,,,,
,,,,,,,299453,and,001,andaluz,Sí,2022-10-29_23h12.25.129,empathy_intonation_perc_sp_and,2022.2.4,Win32,59.71218726,IwAR1aVuHObCOon2G9fdB8NAznvcl2YLTG7d7l_Ex2aInreDVlQReYRali2ck,,,,,,,,,,,,,,,,,,,,,,,,,,,
,,,,,,,299453,and,001,andaluz,Sí,2022-10-29_23h12.25.129,empathy_intonation_perc_sp_and,2022.2.4,Win32,59.71218726,IwAR1aVuHObCOon2G9fdB8NAznvcl2YLTG7d7l_Ex2aInreDVlQReYRali2ck,,,,,,,,,,1,1,1,1.9035,0,0,0,25,1,26,./stim/wavs/andalusian_match_interrogative-total-yn_Daniel-iba-a-Bolivia.wav,./stim/wavs/argentine_match_interrogative-total-yn_Daniel-iba-a-Bolivia.wav,./stim/wavs/castilian_match_interrogative-total-yn_Daniel-iba-a-Bolivia.wav,./stim/wavs/chilean_match_interrogative-total-yn_Daniel-iba-a-Bolivia.wav,./stim/wavs/cuban_match_interrogative-total-yn_Daniel-iba-a-Bolivia.wav,./stim/wavs/mexican_match_interrogative-total-yn_Daniel-iba-a-Bolivia.wav,./stim/wavs/peruvian_match_interrogative-total-yn_Daniel-iba-a-Bolivia.wav,./stim/wavs/puertorican_match_interrogative-total-yn_Daniel-iba-a-Bolivia.wav
,,,,,,,299453,and,001,andaluz,Sí,2022-10-29_23h12.25.129,empathy_intonation_perc_sp_and,2022.2.4,Win32,59.71218726,IwAR1aVuHObCOon2G9fdB8NAznvcl2YLTG7d7l_Ex2aInreDVlQReYRali2ck,,,,,,,,,,0,0,1,2.0218,0,1,1,38,1,39,./stim/wavs/andalusian_mismatch_declarative-broad-focus_Mi-novio-viene-del-lago.wav,./stim/wavs/argentine_mismatch_declarative-broad-focus_Mi-novio-viene-del-lago.wav,./stim/wavs/castilian_mismatch_declarative-broad-focus_Mi-novio-viene-del-lago.wav,./stim/wavs/chilean_mismatch_declarative-broad-focus_Mi-novio-viene-del-lago.wav,./stim/wavs/cuban_mismatch_declarative-broad-focus_Mi-novio-viene-del-lago.wav,./stim/wavs/mexican_mismatch_declarative-broad-focus_Mi-novio-viene-del-lago.wav,./stim/wavs/peruvian_mismatch_declarative-broad-focus_Mi-novio-viene-del-lago.wav,./stim/wavs/puertorican_mismatch_declarative-broad-focus_Mi-novio-viene-del-lago.wav
,,,,,,,299453,and,001,andaluz,Sí,2022-10-29_23h12.25.129,empathy_intonation_perc_sp_and,2022.2.4,Win32,59.71218726,IwAR1aVuHObCOon2G9fdB8NAznvcl2YLTG7d7l_Ex2aInreDVlQReYRali2ck,,,,,,,,,,0,0,1,2.1232,0,2,2,1,1,2,./stim/wavs/andalusian_match_declarative-broad-focus_Daniel-iba-a-Bolivia.wav,./stim/wavs/argentine_match_declarative-broad-focus_Daniel-iba-a-Bolivia.wav,./stim/wavs/castilian_match_declarative-broad-focus_Daniel-iba-a-Bolivia.wav,./stim/wavs/chilean_match_declarative-broad-focus_Daniel-iba-a-Bolivia.wav,./stim/wavs/cuban_match_declarative-broad-focus_Daniel-iba-a-Bolivia.wav,./stim/wavs/mexican_match_declarative-broad-focus_Daniel-iba-a-Bolivia.wav,./stim/wavs/peruvian_match_declarative-broad-focus_Daniel-iba-a-Bolivia.wav,./stim/wavs/puertorican_match_declarative-broad-focus_Daniel-iba-a-Bolivia.wav
,,,,,,,299453,and,001,andaluz,Sí,2022-10-29_23h12.25.129,empathy_intonation_perc_sp_and,2022.2.4,Win32,59.71218726,IwAR1aVuHObCOon2G9fdB8NAznvcl2YLTG7d7l_Ex2aInreDVlQReYRali2ck,,,,,,,,,,1,1,1,1.5361,0,3,3,50,1,51,./stim/wavs/andalusian_mismatch_interrogative-partial-wh_Cuando-miraba-la-luna.wav,./stim/wavs/argentine_mismatch_interrogative-partial-wh_Cuando-miraba-la-luna.wav,./stim/wavs/castilian_mismatch_interrogative-partial-wh_Cuando-miraba-la-luna.wav,./stim/wavs/chilean_mismatch_interrogative-partial-wh_Cuando-miraba-la-luna.wav,./stim/wavs/cuban_mismatch_interrogative-partial-wh_Cuando-miraba-la-luna.wav,./stim/wavs/mexican_mismatch_interrogative-partial-wh_Cuando-miraba-la-luna.wav,./stim/wavs/peruvian_mismatch_interrogative-partial-wh_Cuando-miraba-la-luna.wav,./stim/wavs/puertorican_mismatch_interrogative-partial-wh_Cuando-miraba-la-luna.wav
,,,,,,,299453,and,001,andaluz,Sí,2022-10-29_23h12.25.129,empathy_intonation_perc_sp_and,2022.2.4,Win32,59.71218726,IwAR1aVuHObCOon2G9fdB8NAznvcl2YLTG7d7l_Ex2aInreDVlQReYRali2ck,,,,,,,,,,0,1,0,1.6556,0,4,4,13,1,14,./stim/wavs/andalusian_match_declarative-narrow-focus_Maria-bebe-el-vino.wav,./stim/wavs/argentine_match_declarative-narrow-focus_Maria-bebe-el-vino.wav,./stim/wavs/castilian_match_declarative-narrow-focus_Maria-bebe-el-vino.wav,./stim/wavs/chilean_match_declarative-narrow-focus_Maria-bebe-el-vino.wav,./stim/wavs/cuban_match_declarative-narrow-focus_Maria-bebe-el-vino.wav,./stim/wavs/mexican_match_declarative-narrow-focus_Maria-bebe-el-vino.wav,./stim/wavs/peruvian_match_declarative-narrow-focus_Maria-bebe-el-vino.wav,./stim/wavs/puertorican_match_declarative-narrow-focus_Maria-bebe-el-vino.wav
,,,,,,,299453,and,001,andaluz,Sí,2022-10-29_23h12.25.129,empathy_intonation_perc_sp_and,2022.2.4,Win32,59.71218726,IwAR1aVuHObCOon2G9fdB8NAznvcl2YLTG7d7l_Ex2aInreDVlQReYRali2ck,,,,,,,,,,1,1,1,1.4121,0,5,5,61,1,62,./stim/wavs/andalusian_mismatch_interrogative-total-yn_Mi-madre-come-la-fruta.wav,./stim/wavs/argentine_mismatch_interrogative-total-yn_Mi-madre-come-la-fruta.wav,./stim/wavs/castilian_mismatch_interrogative-total-yn_Mi-madre-come-la-fruta.wav,./stim/wavs/chilean_mismatch_interrogative-total-yn_Mi-madre-come-la-fruta.wav,./stim/wavs/cuban_mismatch_interrogative-total-yn_Mi-madre-come-la-fruta.wav,./stim/wavs/mexican_mismatch_interrogative-total-yn_Mi-madre-come-la-fruta.wav,./stim/wavs/peruvian_mismatch_interrogative-total-yn_Mi-madre-come-la-fruta.wav,./stim/wavs/puertorican_mismatch_interrogative-total-yn_Mi-madre-come-la-fruta.wav
,,,,,,,299453,and,001,andaluz,Sí,2022-10-29_23h12.25.129,empathy_intonation_perc_sp_and,2022.2.4,Win32,59.71218726,IwAR1aVuHObCOon2G9fdB8NAznvcl2YLTG7d7l_Ex2aInreDVlQReYRali2ck,,,,,,,,,,1,1,1,1.9495,0,6,6,18,1,19,./stim/wavs/andalusian_match_interrogative-partial-wh_Cuando-lleva-el-abrigo.wav,./stim/wavs/argentine_match_interrogative-partial-wh_Cuando-lleva-el-abrigo.wav,./stim/wavs/castilian_match_interrogative-partial-wh_Cuando-lleva-el-abrigo.wav,./stim/wavs/chilean_match_interrogative-partial-wh_Cuando-lleva-el-abrigo.wav,./stim/wavs/cuban_match_interrogative-partial-wh_Cuando-lleva-el-abrigo.wav,./stim/wavs/mexican_match_interrogative-partial-wh_Cuando-lleva-el-abrigo.wav,./stim/wavs/peruvian_match_interrogative-partial-wh_Cuando-lleva-el-abrigo.wav,./stim/wavs/puertorican_match_interrogative-partial-wh_Cuando-lleva-el-abrigo.wav
,,,,,,,299453,and,001,andaluz,Sí,2022-10-29_23h12.25.129,empathy_intonation_perc_sp_and,2022.2.4,Win32,59.71218726,IwAR1aVuHObCOon2G9fdB8NAznvcl2YLTG7d7l_Ex2aInreDVlQReYRali2ck,,,,,,,,,,1,0,0,6.2132,0,7,7,31,1,32,./stim/wavs/andalusian_match_interrogative-total-yn_Marta-abre-el-regalo.wav,./stim/wavs/argentine_match_interrogative-total-yn_Marta-abre-el-regalo.wav,./stim/wavs/castilian_match_interrogative-total-yn_Marta-abre-el-regalo.wav,./stim/wavs/chilean_match_interrogative-total-yn_Marta-abre-el-regalo.wav,./stim/wavs/cuban_match_interrogative-total-yn_Marta-abre-el-regalo.wav,./stim/wavs/mexican_match_interrogative-total-yn_Marta-abre-el-regalo.wav,./stim/wavs/peruvian_match_interrogative-total-yn_Marta-abre-el-regalo.wav,./stim/wavs/puertorican_match_interrogative-total-yn_Marta-abre-el-regalo.wav
,,,,,,,299453,and,001,andaluz,Sí,2022-10-29_23h12.25.129,empathy_intonation_perc_sp_and,2022.2.4,Win32,59.71218726,IwAR1aVuHObCOon2G9fdB8NAznvcl2YLTG7d7l_Ex2aInreDVlQReYRali2ck,,,,,,,,,,0,0,1,9.7232,0,8,8,43,1,44,./stim/wavs/andalusian_mismatch_declarative-narrow-focus_La-maestra-vive-en-Paris.wav,./stim/wavs/argentine_mismatch_declarative-narrow-focus_La-maestra-vive-en-Paris.wav,./stim/wavs/castilian_mismatch_declarative-narrow-focus_La-maestra-vive-en-Paris.wav,./stim/wavs/chilean_mismatch_declarative-narrow-focus_La-maestra-vive-en-Paris.wav,./stim/wavs/cuban_mismatch_declarative-narrow-focus_La-maestra-vive-en-Paris.wav,./stim/wavs/mexican_mismatch_declarative-narrow-focus_La-maestra-vive-en-Paris.wav,./stim/wavs/peruvian_mismatch_declarative-narrow-focus_La-maestra-vive-en-Paris.wav,./stim/wavs/puertorican_mismatch_declarative-narrow-focus_La-maestra-vive-en-Paris.wav
,,,,,,,299453,and,001,andaluz,Sí,2022-10-29_23h12.25.129,empathy_intonation_perc_sp_and,2022.2.4,Win32,59.71218726,IwAR1aVuHObCOon2G9fdB8NAznvcl2YLTG7d7l_Ex2aInreDVlQReYRali2ck,,,,,,,,,,0,0,1,1.7702,0,9,9,5,1,6,./stim/wavs/andalusian_match_declarative-broad-focus_Maria-bebe-el-vino.wav,./stim/wavs/argentine_match_declarative-broad-focus_Maria-bebe-el-vino.wav,./stim/wavs/castilian_match_declarative-broad-focus_Maria-bebe-el-vino.wav,./stim/wavs/chilean_match_declarative-broad-focus_Maria-bebe-el-vino.wav,./stim/wavs/cuban_match_declarative-broad-focus_Maria-bebe-el-vino.wav,./stim/wavs/mexican_match_declarative-broad-focus_Maria-bebe-el-vino.wav,./stim/wavs/peruvian_match_declarative-broad-focus_Maria-bebe-el-vino.wav,./stim/wavs/puertorican_match_declarative-broad-focus_Maria-bebe-el-vino.wav
,,,,,,,299453,and,001,andaluz,Sí,2022-10-29_23h12.25.129,empathy_intonation_perc_sp_and,2022.2.4,Win32,59.71218726,IwAR1aVuHObCOon2G9fdB8NAznvcl2YLTG7d7l_Ex2aInreDVlQReYRali2ck,,,,,,,,,,0,0,1,1.6865,0,10,10,0,1,1,./stim/wavs/andalusian_match_declarative-broad-focus_Ana-lleva-el-abrigo.wav,./stim/wavs/argentine_match_declarative-broad-focus_Ana-lleva-el-abrigo.wav,./stim/wavs/castilian_match_declarative-broad-focus_Ana-lleva-el-abrigo.wav,./stim/wavs/chilean_match_declarative-broad-focus_Ana-lleva-el-abrigo.wav,./stim/wavs/cuban_match_declarative-broad-focus_Ana-lleva-el-abrigo.wav,./stim/wavs/mexican_match_declarative-broad-focus_Ana-lleva-el-abrigo.wav,./stim/wavs/peruvian_match_declarative-broad-focus_Ana-lleva-el-abrigo.wav,./stim/wavs/puertorican_match_declarative-broad-focus_Ana-lleva-el-abrigo.wav
,,,,,,,299453,and,001,andaluz,Sí,2022-10-29_23h12.25.129,empathy_intonation_perc_sp_and,2022.2.4,Win32,59.71218726,IwAR1aVuHObCOon2G9fdB8NAznvcl2YLTG7d7l_Ex2aInreDVlQReYRali2ck,,,,,,,,,,0,1,0,2.8187,0,11,11,9,1,10,./stim/wavs/andalusian_match_declarative-narrow-focus_Daniel-iba-a-Bolivia.wav,./stim/wavs/argentine_match_declarative-narrow-focus_Daniel-iba-a-Bolivia.wav,./stim/wavs/castilian_match_declarative-narrow-focus_Daniel-iba-a-Bolivia.wav,./stim/wavs/chilean_match_declarative-narrow-focus_Daniel-iba-a-Bolivia.wav,./stim/wavs/cuban_match_declarative-narrow-focus_Daniel-iba-a-Bolivia.wav,./stim/wavs/mexican_match_declarative-narrow-focus_Daniel-iba-a-Bolivia.wav,./stim/wavs/peruvian_match_declarative-narrow-focus_Daniel-iba-a-Bolivia.wav,./stim/wavs/puertorican_match_declarative-narrow-focus_Daniel-iba-a-Bolivia.wav
,,,,,,,299453,and,001,andaluz,Sí,2022-10-29_23h12.25.129,empathy_intonation_perc_sp_and,2022.2.4,Win32,59.71218726,IwAR1aVuHObCOon2G9fdB8NAznvcl2YLTG7d7l_Ex2aInreDVlQReYRali2ck,,,,,,,,,,0,0,1,2.0223,0,12,12,39,1,40,./stim/wavs/andalusian_mismatch_declarative-broad-focus_Mi-tia-odia-la-lluvia.wav,./stim/wavs/argentine_mismatch_declarative-broad-focus_Mi-tia-odia-la-lluvia.wav,./stim/wavs/castilian_mismatch_declarative-broad-focus_Mi-tia-odia-la-lluvia.wav,./stim/wavs/chilean_mismatch_declarative-broad-focus_Mi-tia-odia-la-lluvia.wav,./stim/wavs/cuban_mismatch_declarative-broad-focus_Mi-tia-odia-la-lluvia.wav,./stim/wavs/mexican_mismatch_declarative-broad-focus_Mi-tia-odia-la-lluvia.wav,./stim/wavs/peruvian_mismatch_declarative-broad-focus_Mi-tia-odia-la-lluvia.wav,./stim/wavs/puertorican_mismatch_declarative-broad-focus_Mi-tia-odia-la-lluvia.wav
,,,,,,,299453,and,001,andaluz,Sí,2022-10-29_23h12.25.129,empathy_intonation_perc_sp_and,2022.2.4,Win32,59.71218726,IwAR1aVuHObCOon2G9fdB8NAznvcl2YLTG7d7l_Ex2aInreDVlQReYRali2ck,,,,,,,,,,1,1,1,2.2893,0,13,13,51,1,52,./stim/wavs/andalusian_mismatch_interrogative-partial-wh_Por-que-desayuna-muy-bien.wav,./stim/wavs/argentine_mismatch_interrogative-partial-wh_Por-que-desayuna-muy-bien.wav,./stim/wavs/castilian_mismatch_interrogative-partial-wh_Por-que-desayuna-muy-bien.wav,./stim/wavs/chilean_mismatch_interrogative-partial-wh_Por-que-desayuna-muy-bien.wav,./stim/wavs/cuban_mismatch_interrogative-partial-wh_Por-que-desayuna-muy-bien.wav,./stim/wavs/mexican_mismatch_interrogative-partial-wh_Por-que-desayuna-muy-bien.wav,./stim/wavs/peruvian_mismatch_interrogative-partial-wh_Por-que-desayuna-muy-bien.wav,./stim/wavs/puertorican_mismatch_interrogative-partial-wh_Por-que-desayuna-muy-bien.wav
,,,,,,,299453,and,001,andaluz,Sí,2022-10-29_23h12.25.129,empathy_intonation_perc_sp_and,2022.2.4,Win32,59.71218726,IwAR1aVuHObCOon2G9fdB8NAznvcl2YLTG7d7l_Ex2aInreDVlQReYRali2ck,,,,,,,,,,1,1,1,1.3647,0,14,14,24,1,25,./stim/wavs/andalusian_match_interrogative-total-yn_Ana-lleva-el-abrigo.wav,./stim/wavs/argentine_match_interrogative-total-yn_Ana-lleva-el-abrigo.wav,./stim/wavs/castilian_match_interrogative-total-yn_Ana-lleva-el-abrigo.wav,./stim/wavs/chilean_match_interrogative-total-yn_Ana-lleva-el-abrigo.wav,./stim/wavs/cuban_match_interrogative-total-yn_Ana-lleva-el-abrigo.wav,./stim/wavs/mexican_match_interrogative-total-yn_Ana-lleva-el-abrigo.wav,./stim/wavs/peruvian_match_interrogative-total-yn_Ana-lleva-el-abrigo.wav,./stim/wavs/puertorican_match_interrogative-total-yn_Ana-lleva-el-abrigo.wav
,,,,,,,299453,and,001,andaluz,Sí,2022-10-29_23h12.25.129,empathy_intonation_perc_sp_and,2022.2.4,Win32,59.71218726,IwAR1aVuHObCOon2G9fdB8NAznvcl2YLTG7d7l_Ex2aInreDVlQReYRali2ck,,,,,,,,,,1,1,1,1.8233,0,15,15,60,1,61,./stim/wavs/andalusian_mismatch_interrogative-total-yn_La-nina-lava-el-plato.wav,./stim/wavs/argentine_mismatch_interrogative-total-yn_La-nina-lava-el-plato.wav,./stim/wavs/castilian_mismatch_interrogative-total-yn_La-nina-lava-el-plato.wav,./stim/wavs/chilean_mismatch_interrogative-total-yn_La-nina-lava-el-plato.wav,./stim/wavs/cuban_mismatch_interrogative-total-yn_La-nina-lava-el-plato.wav,./stim/wavs/mexican_mismatch_interrogative-total-yn_La-nina-lava-el-plato.wav,./stim/wavs/peruvian_mismatch_interrogative-total-yn_La-nina-lava-el-plato.wav,./stim/wavs/puertorican_mismatch_interrogative-total-yn_La-nina-lava-el-plato.wav
,,,,,,,299453,and,001,andaluz,Sí,2022-10-29_23h12.25.129,empathy_intonation_perc_sp_and,2022.2.4,Win32,59.71218726,IwAR1aVuHObCOon2G9fdB8NAznvcl2YLTG7d7l_Ex2aInreDVlQReYRali2ck,,,,,,,,,,1,1,1,1.383,0,16,16,57,1,58,./stim/wavs/andalusian_mismatch_interrogative-total-yn_El-hombre-mira-la-luna.wav,./stim/wavs/argentine_mismatch_interrogative-total-yn_El-hombre-mira-la-luna.wav,./stim/wavs/castilian_mismatch_interrogative-total-yn_El-hombre-mira-la-luna.wav,./stim/wavs/chilean_mismatch_interrogative-total-yn_El-hombre-mira-la-luna.wav,./stim/wavs/cuban_mismatch_interrogative-total-yn_El-hombre-mira-la-luna.wav,./stim/wavs/mexican_mismatch_interrogative-total-yn_El-hombre-mira-la-luna.wav,./stim/wavs/peruvian_mismatch_interrogative-total-yn_El-hombre-mira-la-luna.wav,./stim/wavs/puertorican_mismatch_interrogative-total-yn_El-hombre-mira-la-luna.wav
,,,,,,,299453,and,001,andaluz,Sí,2022-10-29_23h12.25.129,empathy_intonation_perc_sp_and,2022.2.4,Win32,59.71218726,IwAR1aVuHObCOon2G9fdB8NAznvcl2YLTG7d7l_Ex2aInreDVlQReYRali2ck,,,,,,,,,,0,0,1,1.9564,0,17,17,32,1,33,./stim/wavs/andalusian_mismatch_declarative-broad-focus_El-bebe-comia-muy-bien.wav,./stim/wavs/argentine_mismatch_declarative-broad-focus_El-bebe-comia-muy-bien.wav,./stim/wavs/castilian_mismatch_declarative-broad-focus_El-bebe-comia-muy-bien.wav,./stim/wavs/chilean_mismatch_declarative-broad-focus_El-bebe-comia-muy-bien.wav,./stim/wavs/cuban_mismatch_declarative-broad-focus_El-bebe-comia-muy-bien.wav,./stim/wavs/mexican_mismatch_declarative-broad-focus_El-bebe-comia-muy-bien.wav,./stim/wavs/peruvian_mismatch_declarative-broad-focus_El-bebe-comia-muy-bien.wav,./stim/wavs/puertorican_mismatch_declarative-broad-focus_El-bebe-comia-muy-bien.wav
,,,,,,,299453,and,001,andaluz,Sí,2022-10-29_23h12.25.129,empathy_intonation_perc_sp_and,2022.2.4,Win32,59.71218726,IwAR1aVuHObCOon2G9fdB8NAznvcl2YLTG7d7l_Ex2aInreDVlQReYRali2ck,,,,,,,,,,0,1,0,1.4973,0,18,18,41,1,42,./stim/wavs/andalusian_mismatch_declarative-narrow-focus_El-hombre-mira-la-luna.wav,./stim/wavs/argentine_mismatch_declarative-narrow-focus_El-hombre-mira-la-luna.wav,./stim/wavs/castilian_mismatch_declarative-narrow-focus_El-hombre-mira-la-luna.wav,./stim/wavs/chilean_mismatch_declarative-narrow-focus_El-hombre-mira-la-luna.wav,./stim/wavs/cuban_mismatch_declarative-narrow-focus_El-hombre-mira-la-luna.wav,./stim/wavs/mexican_mismatch_declarative-narrow-focus_El-hombre-mira-la-luna.wav,./stim/wavs/peruvian_mismatch_declarative-narrow-focus_El-hombre-mira-la-luna.wav,./stim/wavs/puertorican_mismatch_declarative-narrow-focus_El-hombre-mira-la-luna.wav
,,,,,,,299453,and,001,andaluz,Sí,2022-10-29_23h12.25.129,empathy_intonation_perc_sp_and,2022.2.4,Win32,59.71218726,IwAR1aVuHObCOon2G9fdB8NAznvcl2YLTG7d7l_Ex2aInreDVlQReYRali2ck,,,,,,,,,,1,1,1,3.0319,0,19,19,28,1,29,./stim/wavs/andalusian_match_interrogative-total-yn_Manuela-vende-el-carro.wav,./stim/wavs/argentine_match_interrogative-total-yn_Manuela-vende-el-carro.wav,./stim/wavs/castilian_match_interrogative-total-yn_Manuela-vende-el-carro.wav,./stim/wavs/chilean_match_interrogative-total-yn_Manuela-vende-el-carro.wav,./stim/wavs/cuban_match_interrogative-total-yn_Manuela-vende-el-carro.wav,./stim/wavs/mexican_match_interrogative-total-yn_Manuela-vende-el-carro.wav,./stim/wavs/peruvian_match_interrogative-total-yn_Manuela-vende-el-carro.wav,./stim/wavs/puertorican_match_interrogative-total-yn_Manuela-vende-el-carro.wav
,,,,,,,299453,and,001,andaluz,Sí,2022-10-29_23h12.25.129,empathy_intonation_perc_sp_and,2022.2.4,Win32,59.71218726,IwAR1aVuHObCOon2G9fdB8NAznvcl2YLTG7d7l_Ex2aInreDVlQReYRali2ck,,,,,,,,,,1,1,1,2.1428,0,20,20,49,1,50,./stim/wavs/andalusian_mismatch_interrogative-partial-wh_Cuando-lavaba-el-plato.wav,./stim/wavs/argentine_mismatch_interrogative-partial-wh_Cuando-lavaba-el-plato.wav,./stim/wavs/castilian_mismatch_interrogative-partial-wh_Cuando-lavaba-el-plato.wav,./stim/wavs/chilean_mismatch_interrogative-partial-wh_Cuando-lavaba-el-plato.wav,./stim/wavs/cuban_mismatch_interrogative-partial-wh_Cuando-lavaba-el-plato.wav,./stim/wavs/mexican_mismatch_interrogative-partial-wh_Cuando-lavaba-el-plato.wav,./stim/wavs/peruvian_mismatch_interrogative-partial-wh_Cuando-lavaba-el-plato.wav,./stim/wavs/puertorican_mismatch_interrogative-partial-wh_Cuando-lavaba-el-plato.wav
,,,,,,,299453,and,001,andaluz,Sí,2022-10-29_23h12.25.129,empathy_intonation_perc_sp_and,2022.2.4,Win32,59.71218726,IwAR1aVuHObCOon2G9fdB8NAznvcl2YLTG7d7l_Ex2aInreDVlQReYRali2ck,,,,,,,,,,0,0,1,8.4436,0,21,21,12,1,13,./stim/wavs/andalusian_match_declarative-narrow-focus_Manuela-vende-el-carro.wav,./stim/wavs/argentine_match_declarative-narrow-focus_Manuela-vende-el-carro.wav,./stim/wavs/castilian_match_declarative-narrow-focus_Manuela-vende-el-carro.wav,./stim/wavs/chilean_match_declarative-narrow-focus_Manuela-vende-el-carro.wav,./stim/wavs/cuban_match_declarative-narrow-focus_Manuela-vende-el-carro.wav,./stim/wavs/mexican_match_declarative-narrow-focus_Manuela-vende-el-carro.wav,./stim/wavs/peruvian_match_declarative-narrow-focus_Manuela-vende-el-carro.wav,./stim/wavs/puertorican_match_declarative-narrow-focus_Manuela-vende-el-carro.wav
,,,,,,,299453,and,001,andaluz,Sí,2022-10-29_23h12.25.129,empathy_intonation_perc_sp_and,2022.2.4,Win32,59.71218726,IwAR1aVuHObCOon2G9fdB8NAznvcl2YLTG7d7l_Ex2aInreDVlQReYRali2ck,,,,,,,,,,0,0,1,2.0065,0,22,22,33,1,34,./stim/wavs/andalusian_mismatch_declarative-broad-focus_El-hombre-mira-la-luna.wav,./stim/wavs/argentine_mismatch_declarative-broad-focus_El-hombre-mira-la-luna.wav,./stim/wavs/castilian_mismatch_declarative-broad-focus_El-hombre-mira-la-luna.wav,./stim/wavs/chilean_mismatch_declarative-broad-focus_El-hombre-mira-la-luna.wav,./stim/wavs/cuban_mismatch_declarative-broad-focus_El-hombre-mira-la-luna.wav,./stim/wavs/mexican_mismatch_declarative-broad-focus_El-hombre-mira-la-luna.wav,./stim/wavs/peruvian_mismatch_declarative-broad-focus_El-hombre-mira-la-luna.wav,./stim/wavs/puertorican_mismatch_declarative-broad-focus_El-hombre-mira-la-luna.wav
,,,,,,,299453,and,001,andaluz,Sí,2022-10-29_23h12.25.129,empathy_intonation_perc_sp_and,2022.2.4,Win32,59.71218726,IwAR1aVuHObCOon2G9fdB8NAznvcl2YLTG7d7l_Ex2aInreDVlQReYRali2ck,,,,,,,,,,1,1,1,2.1001,0,23,23,17,1,18,./stim/wavs/andalusian_match_interrogative-partial-wh_Cuando-leia-el-libro.wav,./stim/wavs/argentine_match_interrogative-partial-wh_Cuando-leia-el-libro.wav,./stim/wavs/castilian_match_interrogative-partial-wh_Cuando-leia-el-libro.wav,./stim/wavs/chilean_match_interrogative-partial-wh_Cuando-leia-el-libro.wav,./stim/wavs/cuban_match_interrogative-partial-wh_Cuando-leia-el-libro.wav,./stim/wavs/mexican_match_interrogative-partial-wh_Cuando-leia-el-libro.wav,./stim/wavs/peruvian_match_interrogative-partial-wh_Cuando-leia-el-libro.wav,./stim/wavs/puertorican_match_interrogative-partial-wh_Cuando-leia-el-libro.wav
,,,,,,,299453,and,001,andaluz,Sí,2022-10-29_23h12.25.129,empathy_intonation_perc_sp_and,2022.2.4,Win32,59.71218726,IwAR1aVuHObCOon2G9fdB8NAznvcl2YLTG7d7l_Ex2aInreDVlQReYRali2ck,,,,,,,,,,0,0,1,2.4064,0,24,24,40,1,41,./stim/wavs/andalusian_mismatch_declarative-narrow-focus_El-bebe-comia-muy-bien.wav,./stim/wavs/argentine_mismatch_declarative-narrow-focus_El-bebe-comia-muy-bien.wav,./stim/wavs/castilian_mismatch_declarative-narrow-focus_El-bebe-comia-muy-bien.wav,./stim/wavs/chilean_mismatch_declarative-narrow-focus_El-bebe-comia-muy-bien.wav,./stim/wavs/cuban_mismatch_declarative-narrow-focus_El-bebe-comia-muy-bien.wav,./stim/wavs/mexican_mismatch_declarative-narrow-focus_El-bebe-comia-muy-bien.wav,./stim/wavs/peruvian_mismatch_declarative-narrow-focus_El-bebe-comia-muy-bien.wav,./stim/wavs/puertorican_mismatch_declarative-narrow-focus_El-bebe-comia-muy-bien.wav
,,,,,,,299453,and,001,andaluz,Sí,2022-10-29_23h12.25.129,empathy_intonation_perc_sp_and,2022.2.4,Win32,59.71218726,IwAR1aVuHObCOon2G9fdB8NAznvcl2YLTG7d7l_Ex2aInreDVlQReYRali2ck,,,,,,,,,,1,1,1,1.685,0,25,25,19,1,20,./stim/wavs/andalusian_match_interrogative-partial-wh_Cuando-vendia-el-carro.wav,./stim/wavs/argentine_match_interrogative-partial-wh_Cuando-vendia-el-carro.wav,./stim/wavs/castilian_match_interrogative-partial-wh_Cuando-vendia-el-carro.wav,./stim/wavs/chilean_match_interrogative-partial-wh_Cuando-vendia-el-carro.wav,./stim/wavs/cuban_match_interrogative-partial-wh_Cuando-vendia-el-carro.wav,./stim/wavs/mexican_match_interrogative-partial-wh_Cuando-vendia-el-carro.wav,./stim/wavs/peruvian_match_interrogative-partial-wh_Cuando-vendia-el-carro.wav,./stim/wavs/puertorican_match_interrogative-partial-wh_Cuando-vendia-el-carro.wav
,,,,,,,299453,and,001,andaluz,Sí,2022-10-29_23h12.25.129,empathy_intonation_perc_sp_and,2022.2.4,Win32,59.71218726,IwAR1aVuHObCOon2G9fdB8NAznvcl2YLTG7d7l_Ex2aInreDVlQReYRali2ck,,,,,,,,,,1,1,1,1.6893,0,26,26,56,1,57,./stim/wavs/andalusian_mismatch_interrogative-total-yn_El-bebe-comia-muy-bien.wav,./stim/wavs/argentine_mismatch_interrogative-total-yn_El-bebe-comia-muy-bien.wav,./stim/wavs/castilian_mismatch_interrogative-total-yn_El-bebe-comia-muy-bien.wav,./stim/wavs/chilean_mismatch_interrogative-total-yn_El-bebe-comia-muy-bien.wav,./stim/wavs/cuban_mismatch_interrogative-total-yn_El-bebe-comia-muy-bien.wav,./stim/wavs/mexican_mismatch_interrogative-total-yn_El-bebe-comia-muy-bien.wav,./stim/wavs/peruvian_mismatch_interrogative-total-yn_El-bebe-comia-muy-bien.wav,./stim/wavs/puertorican_mismatch_interrogative-total-yn_El-bebe-comia-muy-bien.wav
,,,,,,,299453,and,001,andaluz,Sí,2022-10-29_23h12.25.129,empathy_intonation_perc_sp_and,2022.2.4,Win32,59.71218726,IwAR1aVuHObCOon2G9fdB8NAznvcl2YLTG7d7l_Ex2aInreDVlQReYRali2ck,,,,,,,,,,1,1,1,1.8947,0,27,27,21,1,22,./stim/wavs/andalusian_match_interrogative-partial-wh_Por-que-ama-la-navidad.wav,./stim/wavs/argentine_match_interrogative-partial-wh_Por-que-ama-la-navidad.wav,./stim/wavs/castilian_match_interrogative-partial-wh_Por-que-ama-la-navidad.wav,./stim/wavs/chilean_match_interrogative-partial-wh_Por-que-ama-la-navidad.wav,./stim/wavs/cuban_match_interrogative-partial-wh_Por-que-ama-la-navidad.wav,./stim/wavs/mexican_match_interrogative-partial-wh_Por-que-ama-la-navidad.wav,./stim/wavs/peruvian_match_interrogative-partial-wh_Por-que-ama-la-navidad.wav,./stim/wavs/puertorican_match_interrogative-partial-wh_Por-que-ama-la-navidad.wav
,,,,,,,299453,and,001,andaluz,Sí,2022-10-29_23h12.25.129,empathy_intonation_perc_sp_and,2022.2.4,Win32,59.71218726,IwAR1aVuHObCOon2G9fdB8NAznvcl2YLTG7d7l_Ex2aInreDVlQReYRali2ck,,,,,,,,,,0,0,1,1.842,0,28,28,8,1,9,./stim/wavs/andalusian_match_declarative-narrow-focus_Ana-lleva-el-abrigo.wav,./stim/wavs/argentine_match_declarative-narrow-focus_Ana-lleva-el-abrigo.wav,./stim/wavs/castilian_match_declarative-narrow-focus_Ana-lleva-el-abrigo.wav,./stim/wavs/chilean_match_declarative-narrow-focus_Ana-lleva-el-abrigo.wav,./stim/wavs/cuban_match_declarative-narrow-focus_Ana-lleva-el-abrigo.wav,./stim/wavs/mexican_match_declarative-narrow-focus_Ana-lleva-el-abrigo.wav,./stim/wavs/peruvian_match_declarative-narrow-focus_Ana-lleva-el-abrigo.wav,./stim/wavs/puertorican_match_declarative-narrow-focus_Ana-lleva-el-abrigo.wav
,,,,,,,299453,and,001,andaluz,Sí,2022-10-29_23h12.25.129,empathy_intonation_perc_sp_and,2022.2.4,Win32,59.71218726,IwAR1aVuHObCOon2G9fdB8NAznvcl2YLTG7d7l_Ex2aInreDVlQReYRali2ck,,,,,,,,,,1,1,1,2.2096,0,29,29,58,1,59,./stim/wavs/andalusian_mismatch_interrogative-total-yn_El-nino-oye-el-rio.wav,./stim/wavs/argentine_mismatch_interrogative-total-yn_El-nino-oye-el-rio.wav,./stim/wavs/castilian_mismatch_interrogative-total-yn_El-nino-oye-el-rio.wav,./stim/wavs/chilean_mismatch_interrogative-total-yn_El-nino-oye-el-rio.wav,./stim/wavs/cuban_mismatch_interrogative-total-yn_El-nino-oye-el-rio.wav,./stim/wavs/mexican_mismatch_interrogative-total-yn_El-nino-oye-el-rio.wav,./stim/wavs/peruvian_mismatch_interrogative-total-yn_El-nino-oye-el-rio.wav,./stim/wavs/puertorican_mismatch_interrogative-total-yn_El-nino-oye-el-rio.wav
,,,,,,,299453,and,001,andaluz,Sí,2022-10-29_23h12.25.129,empathy_intonation_perc_sp_and,2022.2.4,Win32,59.71218726,IwAR1aVuHObCOon2G9fdB8NAznvcl2YLTG7d7l_Ex2aInreDVlQReYRali2ck,,,,,,,,,,1,1,1,1.8191,0,30,30,55,1,56,./stim/wavs/andalusian_mismatch_interrogative-partial-wh_Por-que-vivia-en-Paris.wav,./stim/wavs/argentine_mismatch_interrogative-partial-wh_Por-que-vivia-en-Paris.wav,./stim/wavs/castilian_mismatch_interrogative-partial-wh_Por-que-vivia-en-Paris.wav,./stim/wavs/chilean_mismatch_interrogative-partial-wh_Por-que-vivia-en-Paris.wav,./stim/wavs/cuban_mismatch_interrogative-partial-wh_Por-que-vivia-en-Paris.wav,./stim/wavs/mexican_mismatch_interrogative-partial-wh_Por-que-vivia-en-Paris.wav,./stim/wavs/peruvian_mismatch_interrogative-partial-wh_Por-que-vivia-en-Paris.wav,./stim/wavs/puertorican_mismatch_interrogative-partial-wh_Por-que-vivia-en-Paris.wav
,,,,,,,299453,and,001,andaluz,Sí,2022-10-29_23h12.25.129,empathy_intonation_perc_sp_and,2022.2.4,Win32,59.71218726,IwAR1aVuHObCOon2G9fdB8NAznvcl2YLTG7d7l_Ex2aInreDVlQReYRali2ck,,,,,,,,,,1,1,1,2.7746,0,31,31,53,1,54,./stim/wavs/andalusian_mismatch_interrogative-partial-wh_Por-que-oia-el-rio.wav,./stim/wavs/argentine_mismatch_interrogative-partial-wh_Por-que-oia-el-rio.wav,./stim/wavs/castilian_mismatch_interrogative-partial-wh_Por-que-oia-el-rio.wav,./stim/wavs/chilean_mismatch_interrogative-partial-wh_Por-que-oia-el-rio.wav,./stim/wavs/cuban_mismatch_interrogative-partial-wh_Por-que-oia-el-rio.wav,./stim/wavs/mexican_mismatch_interrogative-partial-wh_Por-que-oia-el-rio.wav,./stim/wavs/peruvian_mismatch_interrogative-partial-wh_Por-que-oia-el-rio.wav,./stim/wavs/puertorican_mismatch_interrogative-partial-wh_Por-que-oia-el-rio.wav
,,,,,,,299453,and,001,andaluz,Sí,2022-10-29_23h12.25.129,empathy_intonation_perc_sp_and,2022.2.4,Win32,59.71218726,IwAR1aVuHObCOon2G9fdB8NAznvcl2YLTG7d7l_Ex2aInreDVlQReYRali2ck,,,,,,,,,,1,0,0,9.6953,0,32,32,59,1,60,./stim/wavs/andalusian_mismatch_interrogative-total-yn_La-maestra-vive-en-Paris.wav,./stim/wavs/argentine_mismatch_interrogative-total-yn_La-maestra-vive-en-Paris.wav,./stim/wavs/castilian_mismatch_interrogative-total-yn_La-maestra-vive-en-Paris.wav,./stim/wavs/chilean_mismatch_interrogative-total-yn_La-maestra-vive-en-Paris.wav,./stim/wavs/cuban_mismatch_interrogative-total-yn_La-maestra-vive-en-Paris.wav,./stim/wavs/mexican_mismatch_interrogative-total-yn_La-maestra-vive-en-Paris.wav,./stim/wavs/peruvian_mismatch_interrogative-total-yn_La-maestra-vive-en-Paris.wav,./stim/wavs/puertorican_mismatch_interrogative-total-yn_La-maestra-vive-en-Paris.wav
,,,,,,,299453,and,001,andaluz,Sí,2022-10-29_23h12.25.129,empathy_intonation_perc_sp_and,2022.2.4,Win32,59.71218726,IwAR1aVuHObCOon2G9fdB8NAznvcl2YLTG7d7l_Ex2aInreDVlQReYRali2ck,,,,,,,,,,0,0,1,3.1326,0,33,33,14,1,15,./stim/wavs/andalusian_match_declarative-narrow-focus_Mariano-habla-del-tiempo.wav,./stim/wavs/argentine_match_declarative-narrow-focus_Mariano-habla-del-tiempo.wav,./stim/wavs/castilian_match_declarative-narrow-focus_Mariano-habla-del-tiempo.wav,./stim/wavs/chilean_match_declarative-narrow-focus_Mariano-habla-del-tiempo.wav,./stim/wavs/cuban_match_declarative-narrow-focus_Mariano-habla-del-tiempo.wav,./stim/wavs/mexican_match_declarative-narrow-focus_Mariano-habla-del-tiempo.wav,./stim/wavs/peruvian_match_declarative-narrow-focus_Mariano-habla-del-tiempo.wav,./stim/wavs/puertorican_match_declarative-narrow-focus_Mariano-habla-del-tiempo.wav
,,,,,,,299453,and,001,andaluz,Sí,2022-10-29_23h12.25.129,empathy_intonation_perc_sp_and,2022.2.4,Win32,59.71218726,IwAR1aVuHObCOon2G9fdB8NAznvcl2YLTG7d7l_Ex2aInreDVlQReYRali2ck,,,,,,,,,,0,0,1,2.1545,0,34,34,45,1,46,./stim/wavs/andalusian_mismatch_declarative-narrow-focus_Mi-madre-come-la-fruta.wav,./stim/wavs/argentine_mismatch_declarative-narrow-focus_Mi-madre-come-la-fruta.wav,./stim/wavs/castilian_mismatch_declarative-narrow-focus_Mi-madre-come-la-fruta.wav,./stim/wavs/chilean_mismatch_declarative-narrow-focus_Mi-madre-come-la-fruta.wav,./stim/wavs/cuban_mismatch_declarative-narrow-focus_Mi-madre-come-la-fruta.wav,./stim/wavs/mexican_mismatch_declarative-narrow-focus_Mi-madre-come-la-fruta.wav,./stim/wavs/peruvian_mismatch_declarative-narrow-focus_Mi-madre-come-la-fruta.wav,./stim/wavs/puertorican_mismatch_declarative-narrow-focus_Mi-madre-come-la-fruta.wav
,,,,,,,299453,and,001,andaluz,Sí,2022-10-29_23h12.25.129,empathy_intonation_perc_sp_and,2022.2.4,Win32,59.71218726,IwAR1aVuHObCOon2G9fdB8NAznvcl2YLTG7d7l_Ex2aInreDVlQReYRali2ck,,,,,,,,,,0,0,1,2.1247,0,35,35,34,1,35,./stim/wavs/andalusian_mismatch_declarative-broad-focus_El-nino-oye-el-rio.wav,./stim/wavs/argentine_mismatch_declarative-broad-focus_El-nino-oye-el-rio.wav,./stim/wavs/castilian_mismatch_declarative-broad-focus_El-nino-oye-el-rio.wav,./stim/wavs/chilean_mismatch_declarative-broad-focus_El-nino-oye-el-rio.wav,./stim/wavs/cuban_mismatch_declarative-broad-focus_El-nino-oye-el-rio.wav,./stim/wavs/mexican_mismatch_declarative-broad-focus_El-nino-oye-el-rio.wav,./stim/wavs/peruvian_mismatch_declarative-broad-focus_El-nino-oye-el-rio.wav,./stim/wavs/puertorican_mismatch_declarative-broad-focus_El-nino-oye-el-rio.wav
,,,,,,,299453,and,001,andaluz,Sí,2022-10-29_23h12.25.129,empathy_intonation_perc_sp_and,2022.2.4,Win32,59.71218726,IwAR1aVuHObCOon2G9fdB8NAznvcl2YLTG7d7l_Ex2aInreDVlQReYRali2ck,,,,,,,,,,0,1,0,2.479,0,36,36,46,1,47,./stim/wavs/andalusian_mismatch_declarative-narrow-focus_Mi-novio-viene-del-lago.wav,./stim/wavs/argentine_mismatch_declarative-narrow-focus_Mi-novio-viene-del-lago.wav,./stim/wavs/castilian_mismatch_declarative-narrow-focus_Mi-novio-viene-del-lago.wav,./stim/wavs/chilean_mismatch_declarative-narrow-focus_Mi-novio-viene-del-lago.wav,./stim/wavs/cuban_mismatch_declarative-narrow-focus_Mi-novio-viene-del-lago.wav,./stim/wavs/mexican_mismatch_declarative-narrow-focus_Mi-novio-viene-del-lago.wav,./stim/wavs/peruvian_mismatch_declarative-narrow-focus_Mi-novio-viene-del-lago.wav,./stim/wavs/puertorican_mismatch_declarative-narrow-focus_Mi-novio-viene-del-lago.wav
,,,,,,,299453,and,001,andaluz,Sí,2022-10-29_23h12.25.129,empathy_intonation_perc_sp_and,2022.2.4,Win32,59.71218726,IwAR1aVuHObCOon2G9fdB8NAznvcl2YLTG7d7l_Ex2aInreDVlQReYRali2ck,,,,,,,,,,0,0,1,2.0066,0,37,37,35,1,36,./stim/wavs/andalusian_mismatch_declarative-broad-focus_La-maestra-vive-en-Paris.wav,./stim/wavs/argentine_mismatch_declarative-broad-focus_La-maestra-vive-en-Paris.wav,./stim/wavs/castilian_mismatch_declarative-broad-focus_La-maestra-vive-en-Paris.wav,./stim/wavs/chilean_mismatch_declarative-broad-focus_La-maestra-vive-en-Paris.wav,./stim/wavs/cuban_mismatch_declarative-broad-focus_La-maestra-vive-en-Paris.wav,./stim/wavs/mexican_mismatch_declarative-broad-focus_La-maestra-vive-en-Paris.wav,./stim/wavs/peruvian_mismatch_declarative-broad-focus_La-maestra-vive-en-Paris.wav,./stim/wavs/puertorican_mismatch_declarative-broad-focus_La-maestra-vive-en-Paris.wav
,,,,,,,299453,and,001,andaluz,Sí,2022-10-29_23h12.25.129,empathy_intonation_perc_sp_and,2022.2.4,Win32,59.71218726,IwAR1aVuHObCOon2G9fdB8NAznvcl2YLTG7d7l_Ex2aInreDVlQReYRali2ck,,,,,,,,,,1,1,1,1.7684,0,38,38,62,1,63,./stim/wavs/andalusian_mismatch_interrogative-total-yn_Mi-novio-viene-del-lago.wav,./stim/wavs/argentine_mismatch_interrogative-total-yn_Mi-novio-viene-del-lago.wav,./stim/wavs/castilian_mismatch_interrogative-total-yn_Mi-novio-viene-del-lago.wav,./stim/wavs/chilean_mismatch_interrogative-total-yn_Mi-novio-viene-del-lago.wav,./stim/wavs/cuban_mismatch_interrogative-total-yn_Mi-novio-viene-del-lago.wav,./stim/wavs/mexican_mismatch_interrogative-total-yn_Mi-novio-viene-del-lago.wav,./stim/wavs/peruvian_mismatch_interrogative-total-yn_Mi-novio-viene-del-lago.wav,./stim/wavs/puertorican_mismatch_interrogative-total-yn_Mi-novio-viene-del-lago.wav
,,,,,,,299453,and,001,andaluz,Sí,2022-10-29_23h12.25.129,empathy_intonation_perc_sp_and,2022.2.4,Win32,59.71218726,IwAR1aVuHObCOon2G9fdB8NAznvcl2YLTG7d7l_Ex2aInreDVlQReYRali2ck,,,,,,,,,,1,1,1,1.7168,0,39,39,54,1,55,./stim/wavs/andalusian_mismatch_interrogative-partial-wh_Por-que-venia-del-lago.wav,./stim/wavs/argentine_mismatch_interrogative-partial-wh_Por-que-venia-del-lago.wav,./stim/wavs/castilian_mismatch_interrogative-partial-wh_Por-que-venia-del-lago.wav,./stim/wavs/chilean_mismatch_interrogative-partial-wh_Por-que-venia-del-lago.wav,./stim/wavs/cuban_mismatch_interrogative-partial-wh_Por-que-venia-del-lago.wav,./stim/wavs/mexican_mismatch_interrogative-partial-wh_Por-que-venia-del-lago.wav,./stim/wavs/peruvian_mismatch_interrogative-partial-wh_Por-que-venia-del-lago.wav,./stim/wavs/puertorican_mismatch_interrogative-partial-wh_Por-que-venia-del-lago.wav
,,,,,,,299453,and,001,andaluz,Sí,2022-10-29_23h12.25.129,empathy_intonation_perc_sp_and,2022.2.4,Win32,59.71218726,IwAR1aVuHObCOon2G9fdB8NAznvcl2YLTG7d7l_Ex2aInreDVlQReYRali2ck,,,,,,,,,,0,0,1,2.1763,0,40,40,37,1,38,./stim/wavs/andalusian_mismatch_declarative-broad-focus_Mi-madre-come-la-fruta.wav,./stim/wavs/argentine_mismatch_declarative-broad-focus_Mi-madre-come-la-fruta.wav,./stim/wavs/castilian_mismatch_declarative-broad-focus_Mi-madre-come-la-fruta.wav,./stim/wavs/chilean_mismatch_declarative-broad-focus_Mi-madre-come-la-fruta.wav,./stim/wavs/cuban_mismatch_declarative-broad-focus_Mi-madre-come-la-fruta.wav,./stim/wavs/mexican_mismatch_declarative-broad-focus_Mi-madre-come-la-fruta.wav,./stim/wavs/peruvian_mismatch_declarative-broad-focus_Mi-madre-come-la-fruta.wav,./stim/wavs/puertorican_mismatch_declarative-broad-focus_Mi-madre-come-la-fruta.wav
,,,,,,,299453,and,001,andaluz,Sí,2022-10-29_23h12.25.129,empathy_intonation_perc_sp_and,2022.2.4,Win32,59.71218726,IwAR1aVuHObCOon2G9fdB8NAznvcl2YLTG7d7l_Ex2aInreDVlQReYRali2ck,,,,,,,,,,1,1,1,1.5193,0,41,41,52,1,53,./stim/wavs/andalusian_mismatch_interrogative-partial-wh_Por-que-odiaba-la-lluvia.wav,./stim/wavs/argentine_mismatch_interrogative-partial-wh_Por-que-odiaba-la-lluvia.wav,./stim/wavs/castilian_mismatch_interrogative-partial-wh_Por-que-odiaba-la-lluvia.wav,./stim/wavs/chilean_mismatch_interrogative-partial-wh_Por-que-odiaba-la-lluvia.wav,./stim/wavs/cuban_mismatch_interrogative-partial-wh_Por-que-odiaba-la-lluvia.wav,./stim/wavs/mexican_mismatch_interrogative-partial-wh_Por-que-odiaba-la-lluvia.wav,./stim/wavs/peruvian_mismatch_interrogative-partial-wh_Por-que-odiaba-la-lluvia.wav,./stim/wavs/puertorican_mismatch_interrogative-partial-wh_Por-que-odiaba-la-lluvia.wav
,,,,,,,299453,and,001,andaluz,Sí,2022-10-29_23h12.25.129,empathy_intonation_perc_sp_and,2022.2.4,Win32,59.71218726,IwAR1aVuHObCOon2G9fdB8NAznvcl2YLTG7d7l_Ex2aInreDVlQReYRali2ck,,,,,,,,,,0,0,1,1.8086,0,42,42,2,1,3,./stim/wavs/andalusian_match_declarative-broad-focus_David-leia-el-libro.wav,./stim/wavs/argentine_match_declarative-broad-focus_David-leia-el-libro.wav,./stim/wavs/castilian_match_declarative-broad-focus_David-leia-el-libro.wav,./stim/wavs/chilean_match_declarative-broad-focus_David-leia-el-libro.wav,./stim/wavs/cuban_match_declarative-broad-focus_David-leia-el-libro.wav,./stim/wavs/mexican_match_declarative-broad-focus_David-leia-el-libro.wav,./stim/wavs/peruvian_match_declarative-broad-focus_David-leia-el-libro.wav,./stim/wavs/puertorican_match_declarative-broad-focus_David-leia-el-libro.wav
,,,,,,,299453,and,001,andaluz,Sí,2022-10-29_23h12.25.129,empathy_intonation_perc_sp_and,2022.2.4,Win32,59.71218726,IwAR1aVuHObCOon2G9fdB8NAznvcl2YLTG7d7l_Ex2aInreDVlQReYRali2ck,,,,,,,,,,0,0,1,2.2213,0,43,43,7,1,8,./stim/wavs/andalusian_match_declarative-broad-focus_Marta-abre-el-regalo.wav,./stim/wavs/argentine_match_declarative-broad-focus_Marta-abre-el-regalo.wav,./stim/wavs/castilian_match_declarative-broad-focus_Marta-abre-el-regalo.wav,./stim/wavs/chilean_match_declarative-broad-focus_Marta-abre-el-regalo.wav,./stim/wavs/cuban_match_declarative-broad-focus_Marta-abre-el-regalo.wav,./stim/wavs/mexican_match_declarative-broad-focus_Marta-abre-el-regalo.wav,./stim/wavs/peruvian_match_declarative-broad-focus_Marta-abre-el-regalo.wav,./stim/wavs/puertorican_match_declarative-broad-focus_Marta-abre-el-regalo.wav
,,,,,,,299453,and,001,andaluz,Sí,2022-10-29_23h12.25.129,empathy_intonation_perc_sp_and,2022.2.4,Win32,59.71218726,IwAR1aVuHObCOon2G9fdB8NAznvcl2YLTG7d7l_Ex2aInreDVlQReYRali2ck,,,,,,,,,,1,1,1,2.6869,0,44,44,20,1,21,./stim/wavs/andalusian_match_interrogative-partial-wh_Por-que-abre-el-regalo.wav,./stim/wavs/argentine_match_interrogative-partial-wh_Por-que-abre-el-regalo.wav,./stim/wavs/castilian_match_interrogative-partial-wh_Por-que-abre-el-regalo.wav,./stim/wavs/chilean_match_interrogative-partial-wh_Por-que-abre-el-regalo.wav,./stim/wavs/cuban_match_interrogative-partial-wh_Por-que-abre-el-regalo.wav,./stim/wavs/mexican_match_interrogative-partial-wh_Por-que-abre-el-regalo.wav,./stim/wavs/peruvian_match_interrogative-partial-wh_Por-que-abre-el-regalo.wav,./stim/wavs/puertorican_match_interrogative-partial-wh_Por-que-abre-el-regalo.wav
,,,,,,,299453,and,001,andaluz,Sí,2022-10-29_23h12.25.129,empathy_intonation_perc_sp_and,2022.2.4,Win32,59.71218726,IwAR1aVuHObCOon2G9fdB8NAznvcl2YLTG7d7l_Ex2aInreDVlQReYRali2ck,,,,,,,,,,0,0,1,3.1074,0,45,45,15,1,16,./stim/wavs/andalusian_match_declarative-narrow-focus_Marta-abre-el-regalo.wav,./stim/wavs/argentine_match_declarative-narrow-focus_Marta-abre-el-regalo.wav,./stim/wavs/castilian_match_declarative-narrow-focus_Marta-abre-el-regalo.wav,./stim/wavs/chilean_match_declarative-narrow-focus_Marta-abre-el-regalo.wav,./stim/wavs/cuban_match_declarative-narrow-focus_Marta-abre-el-regalo.wav,./stim/wavs/mexican_match_declarative-narrow-focus_Marta-abre-el-regalo.wav,./stim/wavs/peruvian_match_declarative-narrow-focus_Marta-abre-el-regalo.wav,./stim/wavs/puertorican_match_declarative-narrow-focus_Marta-abre-el-regalo.wav
,,,,,,,299453,and,001,andaluz,Sí,2022-10-29_23h12.25.129,empathy_intonation_perc_sp_and,2022.2.4,Win32,59.71218726,IwAR1aVuHObCOon2G9fdB8NAznvcl2YLTG7d7l_Ex2aInreDVlQReYRali2ck,,,,,,,,,,1,1,1,1.2405,0,46,46,29,1,30,./stim/wavs/andalusian_match_interrogative-total-yn_Maria-bebe-el-vino.wav,./stim/wavs/argentine_match_interrogative-total-yn_Maria-bebe-el-vino.wav,./stim/wavs/castilian_match_interrogative-total-yn_Maria-bebe-el-vino.wav,./stim/wavs/chilean_match_interrogative-total-yn_Maria-bebe-el-vino.wav,./stim/wavs/cuban_match_interrogative-total-yn_Maria-bebe-el-vino.wav,./stim/wavs/mexican_match_interrogative-total-yn_Maria-bebe-el-vino.wav,./stim/wavs/peruvian_match_interrogative-total-yn_Maria-bebe-el-vino.wav,./stim/wavs/puertorican_match_interrogative-total-yn_Maria-bebe-el-vino.wav
,,,,,,,299453,and,001,andaluz,Sí,2022-10-29_23h12.25.129,empathy_intonation_perc_sp_and,2022.2.4,Win32,59.71218726,IwAR1aVuHObCOon2G9fdB8NAznvcl2YLTG7d7l_Ex2aInreDVlQReYRali2ck,,,,,,,,,,0,0,1,2.1754,0,47,47,11,1,12,./stim/wavs/andalusian_match_declarative-narrow-focus_Emilio-ama-la-marcha.wav,./stim/wavs/argentine_match_declarative-narrow-focus_Emilio-ama-la-marcha.wav,./stim/wavs/castilian_match_declarative-narrow-focus_Emilio-ama-la-marcha.wav,./stim/wavs/chilean_match_declarative-narrow-focus_Emilio-ama-la-marcha.wav,./stim/wavs/cuban_match_declarative-narrow-focus_Emilio-ama-la-marcha.wav,./stim/wavs/mexican_match_declarative-narrow-focus_Emilio-ama-la-marcha.wav,./stim/wavs/peruvian_match_declarative-narrow-focus_Emilio-ama-la-marcha.wav,./stim/wavs/puertorican_match_declarative-narrow-focus_Emilio-ama-la-marcha.wav
,,,,,,,299453,and,001,andaluz,Sí,2022-10-29_23h12.25.129,empathy_intonation_perc_sp_and,2022.2.4,Win32,59.71218726,IwAR1aVuHObCOon2G9fdB8NAznvcl2YLTG7d7l_Ex2aInreDVlQReYRali2ck,,,,,,,,,,0,0,1,2.072,0,48,48,4,1,5,./stim/wavs/andalusian_match_declarative-broad-focus_Manuela-vende-el-carro.wav,./stim/wavs/argentine_match_declarative-broad-focus_Manuela-vende-el-carro.wav,./stim/wavs/castilian_match_declarative-broad-focus_Manuela-vende-el-carro.wav,./stim/wavs/chilean_match_declarative-broad-focus_Manuela-vende-el-carro.wav,./stim/wavs/cuban_match_declarative-broad-focus_Manuela-vende-el-carro.wav,./stim/wavs/mexican_match_declarative-broad-focus_Manuela-vende-el-carro.wav,./stim/wavs/peruvian_match_declarative-broad-focus_Manuela-vende-el-carro.wav,./stim/wavs/puertorican_match_declarative-broad-focus_Manuela-vende-el-carro.wav
,,,,,,,299453,and,001,andaluz,Sí,2022-10-29_23h12.25.129,empathy_intonation_perc_sp_and,2022.2.4,Win32,59.71218726,IwAR1aVuHObCOon2G9fdB8NAznvcl2YLTG7d7l_Ex2aInreDVlQReYRali2ck,,,,,,,,,,1,1,1,1.3566,0,49,49,26,1,27,./stim/wavs/andalusian_match_interrogative-total-yn_David-leia-el-libro.wav,./stim/wavs/argentine_match_interrogative-total-yn_David-leia-el-libro.wav,./stim/wavs/castilian_match_interrogative-total-yn_David-leia-el-libro.wav,./stim/wavs/chilean_match_interrogative-total-yn_David-leia-el-libro.wav,./stim/wavs/cuban_match_interrogative-total-yn_David-leia-el-libro.wav,./stim/wavs/mexican_match_interrogative-total-yn_David-leia-el-libro.wav,./stim/wavs/peruvian_match_interrogative-total-yn_David-leia-el-libro.wav,./stim/wavs/puertorican_match_interrogative-total-yn_David-leia-el-libro.wav
,,,,,,,299453,and,001,andaluz,Sí,2022-10-29_23h12.25.129,empathy_intonation_perc_sp_and,2022.2.4,Win32,59.71218726,IwAR1aVuHObCOon2G9fdB8NAznvcl2YLTG7d7l_Ex2aInreDVlQReYRali2ck,,,,,,,,,,1,1,1,1.9548,0,50,50,22,1,23,./stim/wavs/andalusian_match_interrogative-partial-wh_Por-que-hablaba-del-agua.wav,./stim/wavs/argentine_match_interrogative-partial-wh_Por-que-hablaba-del-agua.wav,./stim/wavs/castilian_match_interrogative-partial-wh_Por-que-hablaba-del-agua.wav,./stim/wavs/chilean_match_interrogative-partial-wh_Por-que-hablaba-del-agua.wav,./stim/wavs/cuban_match_interrogative-partial-wh_Por-que-hablaba-del-agua.wav,./stim/wavs/mexican_match_interrogative-partial-wh_Por-que-hablaba-del-agua.wav,./stim/wavs/peruvian_match_interrogative-partial-wh_Por-que-hablaba-del-agua.wav,./stim/wavs/puertorican_match_interrogative-partial-wh_Por-que-hablaba-del-agua.wav
,,,,,,,299453,and,001,andaluz,Sí,2022-10-29_23h12.25.129,empathy_intonation_perc_sp_and,2022.2.4,Win32,59.71218726,IwAR1aVuHObCOon2G9fdB8NAznvcl2YLTG7d7l_Ex2aInreDVlQReYRali2ck,,,,,,,,,,0,0,1,1.8218,0,51,51,6,1,7,./stim/wavs/andalusian_match_declarative-broad-focus_Mariano-habla-del-tiempo.wav,./stim/wavs/argentine_match_declarative-broad-focus_Mariano-habla-del-tiempo.wav,./stim/wavs/castilian_match_declarative-broad-focus_Mariano-habla-del-tiempo.wav,./stim/wavs/chilean_match_declarative-broad-focus_Mariano-habla-del-tiempo.wav,./stim/wavs/cuban_match_declarative-broad-focus_Mariano-habla-del-tiempo.wav,./stim/wavs/mexican_match_declarative-broad-focus_Mariano-habla-del-tiempo.wav,./stim/wavs/peruvian_match_declarative-broad-focus_Mariano-habla-del-tiempo.wav,./stim/wavs/puertorican_match_declarative-broad-focus_Mariano-habla-del-tiempo.wav
,,,,,,,299453,and,001,andaluz,Sí,2022-10-29_23h12.25.129,empathy_intonation_perc_sp_and,2022.2.4,Win32,59.71218726,IwAR1aVuHObCOon2G9fdB8NAznvcl2YLTG7d7l_Ex2aInreDVlQReYRali2ck,,,,,,,,,,0,0,1,1.8201,0,52,52,44,1,45,./stim/wavs/andalusian_mismatch_declarative-narrow-focus_La-nina-lava-el-plato.wav,./stim/wavs/argentine_mismatch_declarative-narrow-focus_La-nina-lava-el-plato.wav,./stim/wavs/castilian_mismatch_declarative-narrow-focus_La-nina-lava-el-plato.wav,./stim/wavs/chilean_mismatch_declarative-narrow-focus_La-nina-lava-el-plato.wav,./stim/wavs/cuban_mismatch_declarative-narrow-focus_La-nina-lava-el-plato.wav,./stim/wavs/mexican_mismatch_declarative-narrow-focus_La-nina-lava-el-plato.wav,./stim/wavs/peruvian_mismatch_declarative-narrow-focus_La-nina-lava-el-plato.wav,./stim/wavs/puertorican_mismatch_declarative-narrow-focus_La-nina-lava-el-plato.wav
,,,,,,,299453,and,001,andaluz,Sí,2022-10-29_23h12.25.129,empathy_intonation_perc_sp_and,2022.2.4,Win32,59.71218726,IwAR1aVuHObCOon2G9fdB8NAznvcl2YLTG7d7l_Ex2aInreDVlQReYRali2ck,,,,,,,,,,1,1,1,2.3375,0,53,53,48,1,49,./stim/wavs/andalusian_mismatch_interrogative-partial-wh_Cuando-comia-la-fruta.wav,./stim/wavs/argentine_mismatch_interrogative-partial-wh_Cuando-comia-la-fruta.wav,./stim/wavs/castilian_mismatch_interrogative-partial-wh_Cuando-comia-la-fruta.wav,./stim/wavs/chilean_mismatch_interrogative-partial-wh_Cuando-comia-la-fruta.wav,./stim/wavs/cuban_mismatch_interrogative-partial-wh_Cuando-comia-la-fruta.wav,./stim/wavs/mexican_mismatch_interrogative-partial-wh_Cuando-comia-la-fruta.wav,./stim/wavs/peruvian_mismatch_interrogative-partial-wh_Cuando-comia-la-fruta.wav,./stim/wavs/puertorican_mismatch_interrogative-partial-wh_Cuando-comia-la-fruta.wav
,,,,,,,299453,and,001,andaluz,Sí,2022-10-29_23h12.25.129,empathy_intonation_perc_sp_and,2022.2.4,Win32,59.71218726,IwAR1aVuHObCOon2G9fdB8NAznvcl2YLTG7d7l_Ex2aInreDVlQReYRali2ck,,,,,,,,,,1,1,1,3.6604,0,54,54,30,1,31,./stim/wavs/andalusian_match_interrogative-total-yn_Mariano-habla-del-tiempo.wav,./stim/wavs/argentine_match_interrogative-total-yn_Mariano-habla-del-tiempo.wav,./stim/wavs/castilian_match_interrogative-total-yn_Mariano-habla-del-tiempo.wav,./stim/wavs/chilean_match_interrogative-total-yn_Mariano-habla-del-tiempo.wav,./stim/wavs/cuban_match_interrogative-total-yn_Mariano-habla-del-tiempo.wav,./stim/wavs/mexican_match_interrogative-total-yn_Mariano-habla-del-tiempo.wav,./stim/wavs/peruvian_match_interrogative-total-yn_Mariano-habla-del-tiempo.wav,./stim/wavs/puertorican_match_interrogative-total-yn_Mariano-habla-del-tiempo.wav
,,,,,,,299453,and,001,andaluz,Sí,2022-10-29_23h12.25.129,empathy_intonation_perc_sp_and,2022.2.4,Win32,59.71218726,IwAR1aVuHObCOon2G9fdB8NAznvcl2YLTG7d7l_Ex2aInreDVlQReYRali2ck,,,,,,,,,,0,0,1,2.1834,0,55,55,47,1,48,./stim/wavs/andalusian_mismatch_declarative-narrow-focus_Mi-tia-odia-la-lluvia.wav,./stim/wavs/argentine_mismatch_declarative-narrow-focus_Mi-tia-odia-la-lluvia.wav,./stim/wavs/castilian_mismatch_declarative-narrow-focus_Mi-tia-odia-la-lluvia.wav,./stim/wavs/chilean_mismatch_declarative-narrow-focus_Mi-tia-odia-la-lluvia.wav,./stim/wavs/cuban_mismatch_declarative-narrow-focus_Mi-tia-odia-la-lluvia.wav,./stim/wavs/mexican_mismatch_declarative-narrow-focus_Mi-tia-odia-la-lluvia.wav,./stim/wavs/peruvian_mismatch_declarative-narrow-focus_Mi-tia-odia-la-lluvia.wav,./stim/wavs/puertorican_mismatch_declarative-narrow-focus_Mi-tia-odia-la-lluvia.wav
,,,,,,,299453,and,001,andaluz,Sí,2022-10-29_23h12.25.129,empathy_intonation_perc_sp_and,2022.2.4,Win32,59.71218726,IwAR1aVuHObCOon2G9fdB8NAznvcl2YLTG7d7l_Ex2aInreDVlQReYRali2ck,,,,,,,,,,0,0,1,3.3254,0,56,56,42,1,43,./stim/wavs/andalusian_mismatch_declarative-narrow-focus_El-nino-oye-el-rio.wav,./stim/wavs/argentine_mismatch_declarative-narrow-focus_El-nino-oye-el-rio.wav,./stim/wavs/castilian_mismatch_declarative-narrow-focus_El-nino-oye-el-rio.wav,./stim/wavs/chilean_mismatch_declarative-narrow-focus_El-nino-oye-el-rio.wav,./stim/wavs/cuban_mismatch_declarative-narrow-focus_El-nino-oye-el-rio.wav,./stim/wavs/mexican_mismatch_declarative-narrow-focus_El-nino-oye-el-rio.wav,./stim/wavs/peruvian_mismatch_declarative-narrow-focus_El-nino-oye-el-rio.wav,./stim/wavs/puertorican_mismatch_declarative-narrow-focus_El-nino-oye-el-rio.wav
,,,,,,,299453,and,001,andaluz,Sí,2022-10-29_23h12.25.129,empathy_intonation_perc_sp_and,2022.2.4,Win32,59.71218726,IwAR1aVuHObCOon2G9fdB8NAznvcl2YLTG7d7l_Ex2aInreDVlQReYRali2ck,,,,,,,,,,0,0,1,2.4894,0,57,57,3,1,4,./stim/wavs/andalusian_match_declarative-broad-focus_Emilio-ama-la-marcha.wav,./stim/wavs/argentine_match_declarative-broad-focus_Emilio-ama-la-marcha.wav,./stim/wavs/castilian_match_declarative-broad-focus_Emilio-ama-la-marcha.wav,./stim/wavs/chilean_match_declarative-broad-focus_Emilio-ama-la-marcha.wav,./stim/wavs/cuban_match_declarative-broad-focus_Emilio-ama-la-marcha.wav,./stim/wavs/mexican_match_declarative-broad-focus_Emilio-ama-la-marcha.wav,./stim/wavs/peruvian_match_declarative-broad-focus_Emilio-ama-la-marcha.wav,./stim/wavs/puertorican_match_declarative-broad-focus_Emilio-ama-la-marcha.wav
,,,,,,,299453,and,001,andaluz,Sí,2022-10-29_23h12.25.129,empathy_intonation_perc_sp_and,2022.2.4,Win32,59.71218726,IwAR1aVuHObCOon2G9fdB8NAznvcl2YLTG7d7l_Ex2aInreDVlQReYRali2ck,,,,,,,,,,0,0,1,2.9906,0,58,58,10,1,11,./stim/wavs/andalusian_match_declarative-narrow-focus_David-leia-el-libro.wav,./stim/wavs/argentine_match_declarative-narrow-focus_David-leia-el-libro.wav,./stim/wavs/castilian_match_declarative-narrow-focus_David-leia-el-libro.wav,./stim/wavs/chilean_match_declarative-narrow-focus_David-leia-el-libro.wav,./stim/wavs/cuban_match_declarative-narrow-focus_David-leia-el-libro.wav,./stim/wavs/mexican_match_declarative-narrow-focus_David-leia-el-libro.wav,./stim/wavs/peruvian_match_declarative-narrow-focus_David-leia-el-libro.wav,./stim/wavs/puertorican_match_declarative-narrow-focus_David-leia-el-libro.wav
,,,,,,,299453,and,001,andaluz,Sí,2022-10-29_23h12.25.129,empathy_intonation_perc_sp_and,2022.2.4,Win32,59.71218726,IwAR1aVuHObCOon2G9fdB8NAznvcl2YLTG7d7l_Ex2aInreDVlQReYRali2ck,,,,,,,,,,1,1,1,2.6729,0,59,59,63,1,64,./stim/wavs/andalusian_mismatch_interrogative-total-yn_Mi-tia-odia-la-lluvia.wav,./stim/wavs/argentine_mismatch_interrogative-total-yn_Mi-tia-odia-la-lluvia.wav,./stim/wavs/castilian_mismatch_interrogative-total-yn_Mi-tia-odia-la-lluvia.wav,./stim/wavs/chilean_mismatch_interrogative-total-yn_Mi-tia-odia-la-lluvia.wav,./stim/wavs/cuban_mismatch_interrogative-total-yn_Mi-tia-odia-la-lluvia.wav,./stim/wavs/mexican_mismatch_interrogative-total-yn_Mi-tia-odia-la-lluvia.wav,./stim/wavs/peruvian_mismatch_interrogative-total-yn_Mi-tia-odia-la-lluvia.wav,./stim/wavs/puertorican_mismatch_interrogative-total-yn_Mi-tia-odia-la-lluvia.wav
,,,,,,,299453,and,001,andaluz,Sí,2022-10-29_23h12.25.129,empathy_intonation_perc_sp_and,2022.2.4,Win32,59.71218726,IwAR1aVuHObCOon2G9fdB8NAznvcl2YLTG7d7l_Ex2aInreDVlQReYRali2ck,,,,,,,,,,1,1,1,1.7706,0,60,60,23,1,24,./stim/wavs/andalusian_match_interrogative-partial-wh_Por-que-iba-a-Bolivia.wav,./stim/wavs/argentine_match_interrogative-partial-wh_Por-que-iba-a-Bolivia.wav,./stim/wavs/castilian_match_interrogative-partial-wh_Por-que-iba-a-Bolivia.wav,./stim/wavs/chilean_match_interrogative-partial-wh_Por-que-iba-a-Bolivia.wav,./stim/wavs/cuban_match_interrogative-partial-wh_Por-que-iba-a-Bolivia.wav,./stim/wavs/mexican_match_interrogative-partial-wh_Por-que-iba-a-Bolivia.wav,./stim/wavs/peruvian_match_interrogative-partial-wh_Por-que-iba-a-Bolivia.wav,./stim/wavs/puertorican_match_interrogative-partial-wh_Por-que-iba-a-Bolivia.wav
,,,,,,,299453,and,001,andaluz,Sí,2022-10-29_23h12.25.129,empathy_intonation_perc_sp_and,2022.2.4,Win32,59.71218726,IwAR1aVuHObCOon2G9fdB8NAznvcl2YLTG7d7l_Ex2aInreDVlQReYRali2ck,,,,,,,,,,1,1,1,1.5346,0,61,61,16,1,17,./stim/wavs/andalusian_match_interrogative-partial-wh_Cuando-bebia-el-vino.wav,./stim/wavs/argentine_match_interrogative-partial-wh_Cuando-bebia-el-vino.wav,./stim/wavs/castilian_match_interrogative-partial-wh_Cuando-bebia-el-vino.wav,./stim/wavs/chilean_match_interrogative-partial-wh_Cuando-bebia-el-vino.wav,./stim/wavs/cuban_match_interrogative-partial-wh_Cuando-bebia-el-vino.wav,./stim/wavs/mexican_match_interrogative-partial-wh_Cuando-bebia-el-vino.wav,./stim/wavs/peruvian_match_interrogative-partial-wh_Cuando-bebia-el-vino.wav,./stim/wavs/puertorican_match_interrogative-partial-wh_Cuando-bebia-el-vino.wav
,,,,,,,299453,and,001,andaluz,Sí,2022-10-29_23h12.25.129,empathy_intonation_perc_sp_and,2022.2.4,Win32,59.71218726,IwAR1aVuHObCOon2G9fdB8NAznvcl2YLTG7d7l_Ex2aInreDVlQReYRali2ck,,,,,,,,,,1,1,1,1.9538,0,62,62,27,1,28,./stim/wavs/andalusian_match_interrogative-total-yn_Emilio-ama-la-marcha.wav,./stim/wavs/argentine_match_interrogative-total-yn_Emilio-ama-la-marcha.wav,./stim/wavs/castilian_match_interrogative-total-yn_Emilio-ama-la-marcha.wav,./stim/wavs/chilean_match_interrogative-total-yn_Emilio-ama-la-marcha.wav,./stim/wavs/cuban_match_interrogative-total-yn_Emilio-ama-la-marcha.wav,./stim/wavs/mexican_match_interrogative-total-yn_Emilio-ama-la-marcha.wav,./stim/wavs/peruvian_match_interrogative-total-yn_Emilio-ama-la-marcha.wav,./stim/wavs/puertorican_match_interrogative-total-yn_Emilio-ama-la-marcha.wav
,,,,,,,299453,and,001,andaluz,Sí,2022-10-29_23h12.25.129,empathy_intonation_perc_sp_and,2022.2.4,Win32,59.71218726,IwAR1aVuHObCOon2G9fdB8NAznvcl2YLTG7d7l_Ex2aInreDVlQReYRali2ck,,,,,,,,,,0,0,1,2.3031,0,63,63,36,1,37,./stim/wavs/andalusian_mismatch_declarative-broad-focus_La-nina-lava-el-plato.wav,./stim/wavs/argentine_mismatch_declarative-broad-focus_La-nina-lava-el-plato.wav,./stim/wavs/castilian_mismatch_declarative-broad-focus_La-nina-lava-el-plato.wav,./stim/wavs/chilean_mismatch_declarative-broad-focus_La-nina-lava-el-plato.wav,./stim/wavs/cuban_mismatch_declarative-broad-focus_La-nina-lava-el-plato.wav,./stim/wavs/mexican_mismatch_declarative-broad-focus_La-nina-lava-el-plato.wav,./stim/wavs/peruvian_mismatch_declarative-broad-focus_La-nina-lava-el-plato.wav,./stim/wavs/puertorican_mismatch_declarative-broad-focus_La-nina-lava-el-plato.wav
