instructions_2afc_loop.thisRepN,instructions_2afc_loop.thisTrialN,instructions_2afc_loop.thisN,instructions_2afc_loop.thisIndex,instructions_2afc_loop.ran,instructions_text,continue_text,participant,study_id,session,Tu variedad del español*,¿Hablas con fluidez otra lengua (sí/no)?*,date,expName,psychopyVersion,OS,frameRate,fbclid,key_resp_2afc_practice.keys,key_resp_2afc_practice.corr,key_resp_2afc_practice.rt,trials_2afc_practice_loop.thisRepN,trials_2afc_practice_loop.thisTrialN,trials_2afc_practice_loop.thisN,trials_2afc_practice_loop.thisIndex,trials_2afc_practice_loop.ran,path,correct_response,key_resp_2afc_trial.keys,key_resp_2afc_trial.corr,key_resp_2afc_trial.rt,trials_2afc_loop.thisRepN,trials_2afc_loop.thisTrialN,trials_2afc_loop.thisN,trials_2afc_loop.thisIndex,trials_2afc_loop.ran,item_num,andalusian,argentine,castilian,chilean,cuban,mexican,peruvian,puertorican
0,0,0,0,1,"En la siguiente tarea vas a escuchar una serie de frases cortas. 

  Vas a decidir si suenan como preguntas o no usando el teclado.",(presiona la barra espaciadora para continuar),581030,and,001,andaluz,Sí,2022-10-27_10h06.02.090,empathy_intonation_perc_sp_and,2022.2.4,Win32,60.88650755,IwAR3HFfi9DLyj6bgQCFxLc1ZlUAtOpsT3wrFrteSC3WQ6WHx7_8mlFDyCkKA,,,,,,,,,,,,,,,,,,,,,,,,,,,
0,1,1,1,1,"Si crees que el enunciado es una pregunta, teclea '1' (Sí) y si crees que 
  no es una pregunta teclea '0' (no).

  Vamos a practicar...",(presiona la barra espaciadora para continuar),581030,and,001,andaluz,Sí,2022-10-27_10h06.02.090,empathy_intonation_perc_sp_and,2022.2.4,Win32,60.88650755,IwAR3HFfi9DLyj6bgQCFxLc1ZlUAtOpsT3wrFrteSC3WQ6WHx7_8mlFDyCkKA,,,,,,,,,,,,,,,,,,,,,,,,,,,
,,,,,,,581030,and,001,andaluz,Sí,2022-10-27_10h06.02.090,empathy_intonation_perc_sp_and,2022.2.4,Win32,60.88650755,IwAR3HFfi9DLyj6bgQCFxLc1ZlUAtOpsT3wrFrteSC3WQ6WHx7_8mlFDyCkKA,0,1,3.9352,0,0,0,5,1,./stim/wavs/andalusian_statement_filler_Alberto-nunca-se-afeita.wav,0,,,,,,,,,,,,,,,,,
,,,,,,,581030,and,001,andaluz,Sí,2022-10-27_10h06.02.090,empathy_intonation_perc_sp_and,2022.2.4,Win32,60.88650755,IwAR3HFfi9DLyj6bgQCFxLc1ZlUAtOpsT3wrFrteSC3WQ6WHx7_8mlFDyCkKA,0,1,2.6502,0,1,1,7,1,./stim/wavs/puertorican_statement_filler_La-nina-pinta-con-su-amiga.wav,0,,,,,,,,,,,,,,,,,
,,,,,,,581030,and,001,andaluz,Sí,2022-10-27_10h06.02.090,empathy_intonation_perc_sp_and,2022.2.4,Win32,60.88650755,IwAR3HFfi9DLyj6bgQCFxLc1ZlUAtOpsT3wrFrteSC3WQ6WHx7_8mlFDyCkKA,0,1,4.9171,0,2,2,4,1,./stim/wavs/cuban_statement_filler_Cocinabas-por-la-noche.wav,0,,,,,,,,,,,,,,,,,
,,,,,,,581030,and,001,andaluz,Sí,2022-10-27_10h06.02.090,empathy_intonation_perc_sp_and,2022.2.4,Win32,60.88650755,IwAR3HFfi9DLyj6bgQCFxLc1ZlUAtOpsT3wrFrteSC3WQ6WHx7_8mlFDyCkKA,1,1,2.4418,0,3,3,0,1,./stim/wavs/castilian_question_filler_Mi-esposo-conoce-al-chico.wav,1,,,,,,,,,,,,,,,,,
,,,,,,,581030,and,001,andaluz,Sí,2022-10-27_10h06.02.090,empathy_intonation_perc_sp_and,2022.2.4,Win32,60.88650755,IwAR3HFfi9DLyj6bgQCFxLc1ZlUAtOpsT3wrFrteSC3WQ6WHx7_8mlFDyCkKA,1,1,2.011,0,4,4,2,1,./stim/wavs/chilean_question_filler_Mi-padre-cantaba-bien.wav,1,,,,,,,,,,,,,,,,,
,,,,,,,581030,and,001,andaluz,Sí,2022-10-27_10h06.02.090,empathy_intonation_perc_sp_and,2022.2.4,Win32,60.88650755,IwAR3HFfi9DLyj6bgQCFxLc1ZlUAtOpsT3wrFrteSC3WQ6WHx7_8mlFDyCkKA,0,1,2.518,0,5,5,6,1,./stim/wavs/peruvian_statement_filler_El-nino-habla-con-su-madre.wav,0,,,,,,,,,,,,,,,,,
,,,,,,,581030,and,001,andaluz,Sí,2022-10-27_10h06.02.090,empathy_intonation_perc_sp_and,2022.2.4,Win32,60.88650755,IwAR3HFfi9DLyj6bgQCFxLc1ZlUAtOpsT3wrFrteSC3WQ6WHx7_8mlFDyCkKA,1,1,1.8434,0,6,6,1,1,./stim/wavs/argentine_question_filler_Mi-vecino-habla-mucho.wav,1,,,,,,,,,,,,,,,,,
,,,,,,,581030,and,001,andaluz,Sí,2022-10-27_10h06.02.090,empathy_intonation_perc_sp_and,2022.2.4,Win32,60.88650755,IwAR3HFfi9DLyj6bgQCFxLc1ZlUAtOpsT3wrFrteSC3WQ6WHx7_8mlFDyCkKA,1,1,2.135,0,7,7,3,1,./stim/wavs/mexican_question_filler_Felipe-no-tiene-contrasena.wav,1,,,,,,,,,,,,,,,,,
,,,,,,,581030,and,001,andaluz,Sí,2022-10-27_10h06.02.090,empathy_intonation_perc_sp_and,2022.2.4,Win32,60.88650755,IwAR3HFfi9DLyj6bgQCFxLc1ZlUAtOpsT3wrFrteSC3WQ6WHx7_8mlFDyCkKA,,,,,,,,,,,,,,,,,,,,,,,,,,,
,,,,,,,581030,and,001,andaluz,Sí,2022-10-27_10h06.02.090,empathy_intonation_perc_sp_and,2022.2.4,Win32,60.88650755,IwAR3HFfi9DLyj6bgQCFxLc1ZlUAtOpsT3wrFrteSC3WQ6WHx7_8mlFDyCkKA,,,,,,,,,,1,1,1,1.7843,0,0,0,22,1,23,./stim/wavs/andalusian_match_interrogative-partial-wh_Por-que-hablaba-del-agua.wav,./stim/wavs/argentine_match_interrogative-partial-wh_Por-que-hablaba-del-agua.wav,./stim/wavs/castilian_match_interrogative-partial-wh_Por-que-hablaba-del-agua.wav,./stim/wavs/chilean_match_interrogative-partial-wh_Por-que-hablaba-del-agua.wav,./stim/wavs/cuban_match_interrogative-partial-wh_Por-que-hablaba-del-agua.wav,./stim/wavs/mexican_match_interrogative-partial-wh_Por-que-hablaba-del-agua.wav,./stim/wavs/peruvian_match_interrogative-partial-wh_Por-que-hablaba-del-agua.wav,./stim/wavs/puertorican_match_interrogative-partial-wh_Por-que-hablaba-del-agua.wav
,,,,,,,581030,and,001,andaluz,Sí,2022-10-27_10h06.02.090,empathy_intonation_perc_sp_and,2022.2.4,Win32,60.88650755,IwAR3HFfi9DLyj6bgQCFxLc1ZlUAtOpsT3wrFrteSC3WQ6WHx7_8mlFDyCkKA,,,,,,,,,,0,0,1,2.2408,0,1,1,11,1,12,./stim/wavs/andalusian_match_declarative-narrow-focus_Emilio-ama-la-marcha.wav,./stim/wavs/argentine_match_declarative-narrow-focus_Emilio-ama-la-marcha.wav,./stim/wavs/castilian_match_declarative-narrow-focus_Emilio-ama-la-marcha.wav,./stim/wavs/chilean_match_declarative-narrow-focus_Emilio-ama-la-marcha.wav,./stim/wavs/cuban_match_declarative-narrow-focus_Emilio-ama-la-marcha.wav,./stim/wavs/mexican_match_declarative-narrow-focus_Emilio-ama-la-marcha.wav,./stim/wavs/peruvian_match_declarative-narrow-focus_Emilio-ama-la-marcha.wav,./stim/wavs/puertorican_match_declarative-narrow-focus_Emilio-ama-la-marcha.wav
,,,,,,,581030,and,001,andaluz,Sí,2022-10-27_10h06.02.090,empathy_intonation_perc_sp_and,2022.2.4,Win32,60.88650755,IwAR3HFfi9DLyj6bgQCFxLc1ZlUAtOpsT3wrFrteSC3WQ6WHx7_8mlFDyCkKA,,,,,,,,,,1,1,1,1.5844,0,2,2,29,1,30,./stim/wavs/andalusian_match_interrogative-total-yn_Maria-bebe-el-vino.wav,./stim/wavs/argentine_match_interrogative-total-yn_Maria-bebe-el-vino.wav,./stim/wavs/castilian_match_interrogative-total-yn_Maria-bebe-el-vino.wav,./stim/wavs/chilean_match_interrogative-total-yn_Maria-bebe-el-vino.wav,./stim/wavs/cuban_match_interrogative-total-yn_Maria-bebe-el-vino.wav,./stim/wavs/mexican_match_interrogative-total-yn_Maria-bebe-el-vino.wav,./stim/wavs/peruvian_match_interrogative-total-yn_Maria-bebe-el-vino.wav,./stim/wavs/puertorican_match_interrogative-total-yn_Maria-bebe-el-vino.wav
,,,,,,,581030,and,001,andaluz,Sí,2022-10-27_10h06.02.090,empathy_intonation_perc_sp_and,2022.2.4,Win32,60.88650755,IwAR3HFfi9DLyj6bgQCFxLc1ZlUAtOpsT3wrFrteSC3WQ6WHx7_8mlFDyCkKA,,,,,,,,,,1,1,1,1.539,0,3,3,49,1,50,./stim/wavs/andalusian_mismatch_interrogative-partial-wh_Cuando-lavaba-el-plato.wav,./stim/wavs/argentine_mismatch_interrogative-partial-wh_Cuando-lavaba-el-plato.wav,./stim/wavs/castilian_mismatch_interrogative-partial-wh_Cuando-lavaba-el-plato.wav,./stim/wavs/chilean_mismatch_interrogative-partial-wh_Cuando-lavaba-el-plato.wav,./stim/wavs/cuban_mismatch_interrogative-partial-wh_Cuando-lavaba-el-plato.wav,./stim/wavs/mexican_mismatch_interrogative-partial-wh_Cuando-lavaba-el-plato.wav,./stim/wavs/peruvian_mismatch_interrogative-partial-wh_Cuando-lavaba-el-plato.wav,./stim/wavs/puertorican_mismatch_interrogative-partial-wh_Cuando-lavaba-el-plato.wav
,,,,,,,581030,and,001,andaluz,Sí,2022-10-27_10h06.02.090,empathy_intonation_perc_sp_and,2022.2.4,Win32,60.88650755,IwAR3HFfi9DLyj6bgQCFxLc1ZlUAtOpsT3wrFrteSC3WQ6WHx7_8mlFDyCkKA,,,,,,,,,,1,1,1,2.277,0,4,4,20,1,21,./stim/wavs/andalusian_match_interrogative-partial-wh_Por-que-abre-el-regalo.wav,./stim/wavs/argentine_match_interrogative-partial-wh_Por-que-abre-el-regalo.wav,./stim/wavs/castilian_match_interrogative-partial-wh_Por-que-abre-el-regalo.wav,./stim/wavs/chilean_match_interrogative-partial-wh_Por-que-abre-el-regalo.wav,./stim/wavs/cuban_match_interrogative-partial-wh_Por-que-abre-el-regalo.wav,./stim/wavs/mexican_match_interrogative-partial-wh_Por-que-abre-el-regalo.wav,./stim/wavs/peruvian_match_interrogative-partial-wh_Por-que-abre-el-regalo.wav,./stim/wavs/puertorican_match_interrogative-partial-wh_Por-que-abre-el-regalo.wav
,,,,,,,581030,and,001,andaluz,Sí,2022-10-27_10h06.02.090,empathy_intonation_perc_sp_and,2022.2.4,Win32,60.88650755,IwAR3HFfi9DLyj6bgQCFxLc1ZlUAtOpsT3wrFrteSC3WQ6WHx7_8mlFDyCkKA,,,,,,,,,,1,1,1,1.553,0,5,5,21,1,22,./stim/wavs/andalusian_match_interrogative-partial-wh_Por-que-ama-la-navidad.wav,./stim/wavs/argentine_match_interrogative-partial-wh_Por-que-ama-la-navidad.wav,./stim/wavs/castilian_match_interrogative-partial-wh_Por-que-ama-la-navidad.wav,./stim/wavs/chilean_match_interrogative-partial-wh_Por-que-ama-la-navidad.wav,./stim/wavs/cuban_match_interrogative-partial-wh_Por-que-ama-la-navidad.wav,./stim/wavs/mexican_match_interrogative-partial-wh_Por-que-ama-la-navidad.wav,./stim/wavs/peruvian_match_interrogative-partial-wh_Por-que-ama-la-navidad.wav,./stim/wavs/puertorican_match_interrogative-partial-wh_Por-que-ama-la-navidad.wav
,,,,,,,581030,and,001,andaluz,Sí,2022-10-27_10h06.02.090,empathy_intonation_perc_sp_and,2022.2.4,Win32,60.88650755,IwAR3HFfi9DLyj6bgQCFxLc1ZlUAtOpsT3wrFrteSC3WQ6WHx7_8mlFDyCkKA,,,,,,,,,,0,0,1,1.685,0,6,6,9,1,10,./stim/wavs/andalusian_match_declarative-narrow-focus_Daniel-iba-a-Bolivia.wav,./stim/wavs/argentine_match_declarative-narrow-focus_Daniel-iba-a-Bolivia.wav,./stim/wavs/castilian_match_declarative-narrow-focus_Daniel-iba-a-Bolivia.wav,./stim/wavs/chilean_match_declarative-narrow-focus_Daniel-iba-a-Bolivia.wav,./stim/wavs/cuban_match_declarative-narrow-focus_Daniel-iba-a-Bolivia.wav,./stim/wavs/mexican_match_declarative-narrow-focus_Daniel-iba-a-Bolivia.wav,./stim/wavs/peruvian_match_declarative-narrow-focus_Daniel-iba-a-Bolivia.wav,./stim/wavs/puertorican_match_declarative-narrow-focus_Daniel-iba-a-Bolivia.wav
,,,,,,,581030,and,001,andaluz,Sí,2022-10-27_10h06.02.090,empathy_intonation_perc_sp_and,2022.2.4,Win32,60.88650755,IwAR3HFfi9DLyj6bgQCFxLc1ZlUAtOpsT3wrFrteSC3WQ6WHx7_8mlFDyCkKA,,,,,,,,,,0,0,1,1.9892,0,7,7,41,1,42,./stim/wavs/andalusian_mismatch_declarative-narrow-focus_El-hombre-mira-la-luna.wav,./stim/wavs/argentine_mismatch_declarative-narrow-focus_El-hombre-mira-la-luna.wav,./stim/wavs/castilian_mismatch_declarative-narrow-focus_El-hombre-mira-la-luna.wav,./stim/wavs/chilean_mismatch_declarative-narrow-focus_El-hombre-mira-la-luna.wav,./stim/wavs/cuban_mismatch_declarative-narrow-focus_El-hombre-mira-la-luna.wav,./stim/wavs/mexican_mismatch_declarative-narrow-focus_El-hombre-mira-la-luna.wav,./stim/wavs/peruvian_mismatch_declarative-narrow-focus_El-hombre-mira-la-luna.wav,./stim/wavs/puertorican_mismatch_declarative-narrow-focus_El-hombre-mira-la-luna.wav
,,,,,,,581030,and,001,andaluz,Sí,2022-10-27_10h06.02.090,empathy_intonation_perc_sp_and,2022.2.4,Win32,60.88650755,IwAR3HFfi9DLyj6bgQCFxLc1ZlUAtOpsT3wrFrteSC3WQ6WHx7_8mlFDyCkKA,,,,,,,,,,0,0,1,1.5074,0,8,8,42,1,43,./stim/wavs/andalusian_mismatch_declarative-narrow-focus_El-nino-oye-el-rio.wav,./stim/wavs/argentine_mismatch_declarative-narrow-focus_El-nino-oye-el-rio.wav,./stim/wavs/castilian_mismatch_declarative-narrow-focus_El-nino-oye-el-rio.wav,./stim/wavs/chilean_mismatch_declarative-narrow-focus_El-nino-oye-el-rio.wav,./stim/wavs/cuban_mismatch_declarative-narrow-focus_El-nino-oye-el-rio.wav,./stim/wavs/mexican_mismatch_declarative-narrow-focus_El-nino-oye-el-rio.wav,./stim/wavs/peruvian_mismatch_declarative-narrow-focus_El-nino-oye-el-rio.wav,./stim/wavs/puertorican_mismatch_declarative-narrow-focus_El-nino-oye-el-rio.wav
,,,,,,,581030,and,001,andaluz,Sí,2022-10-27_10h06.02.090,empathy_intonation_perc_sp_and,2022.2.4,Win32,60.88650755,IwAR3HFfi9DLyj6bgQCFxLc1ZlUAtOpsT3wrFrteSC3WQ6WHx7_8mlFDyCkKA,,,,,,,,,,0,0,1,2.1374,0,9,9,15,1,16,./stim/wavs/andalusian_match_declarative-narrow-focus_Marta-abre-el-regalo.wav,./stim/wavs/argentine_match_declarative-narrow-focus_Marta-abre-el-regalo.wav,./stim/wavs/castilian_match_declarative-narrow-focus_Marta-abre-el-regalo.wav,./stim/wavs/chilean_match_declarative-narrow-focus_Marta-abre-el-regalo.wav,./stim/wavs/cuban_match_declarative-narrow-focus_Marta-abre-el-regalo.wav,./stim/wavs/mexican_match_declarative-narrow-focus_Marta-abre-el-regalo.wav,./stim/wavs/peruvian_match_declarative-narrow-focus_Marta-abre-el-regalo.wav,./stim/wavs/puertorican_match_declarative-narrow-focus_Marta-abre-el-regalo.wav
,,,,,,,581030,and,001,andaluz,Sí,2022-10-27_10h06.02.090,empathy_intonation_perc_sp_and,2022.2.4,Win32,60.88650755,IwAR3HFfi9DLyj6bgQCFxLc1ZlUAtOpsT3wrFrteSC3WQ6WHx7_8mlFDyCkKA,,,,,,,,,,1,1,1,1.3513,0,10,10,55,1,56,./stim/wavs/andalusian_mismatch_interrogative-partial-wh_Por-que-vivia-en-Paris.wav,./stim/wavs/argentine_mismatch_interrogative-partial-wh_Por-que-vivia-en-Paris.wav,./stim/wavs/castilian_mismatch_interrogative-partial-wh_Por-que-vivia-en-Paris.wav,./stim/wavs/chilean_mismatch_interrogative-partial-wh_Por-que-vivia-en-Paris.wav,./stim/wavs/cuban_mismatch_interrogative-partial-wh_Por-que-vivia-en-Paris.wav,./stim/wavs/mexican_mismatch_interrogative-partial-wh_Por-que-vivia-en-Paris.wav,./stim/wavs/peruvian_mismatch_interrogative-partial-wh_Por-que-vivia-en-Paris.wav,./stim/wavs/puertorican_mismatch_interrogative-partial-wh_Por-que-vivia-en-Paris.wav
,,,,,,,581030,and,001,andaluz,Sí,2022-10-27_10h06.02.090,empathy_intonation_perc_sp_and,2022.2.4,Win32,60.88650755,IwAR3HFfi9DLyj6bgQCFxLc1ZlUAtOpsT3wrFrteSC3WQ6WHx7_8mlFDyCkKA,,,,,,,,,,1,1,1,1.551,0,11,11,48,1,49,./stim/wavs/andalusian_mismatch_interrogative-partial-wh_Cuando-comia-la-fruta.wav,./stim/wavs/argentine_mismatch_interrogative-partial-wh_Cuando-comia-la-fruta.wav,./stim/wavs/castilian_mismatch_interrogative-partial-wh_Cuando-comia-la-fruta.wav,./stim/wavs/chilean_mismatch_interrogative-partial-wh_Cuando-comia-la-fruta.wav,./stim/wavs/cuban_mismatch_interrogative-partial-wh_Cuando-comia-la-fruta.wav,./stim/wavs/mexican_mismatch_interrogative-partial-wh_Cuando-comia-la-fruta.wav,./stim/wavs/peruvian_mismatch_interrogative-partial-wh_Cuando-comia-la-fruta.wav,./stim/wavs/puertorican_mismatch_interrogative-partial-wh_Cuando-comia-la-fruta.wav
,,,,,,,581030,and,001,andaluz,Sí,2022-10-27_10h06.02.090,empathy_intonation_perc_sp_and,2022.2.4,Win32,60.88650755,IwAR3HFfi9DLyj6bgQCFxLc1ZlUAtOpsT3wrFrteSC3WQ6WHx7_8mlFDyCkKA,,,,,,,,,,0,0,1,1.8879,0,12,12,38,1,39,./stim/wavs/andalusian_mismatch_declarative-broad-focus_Mi-novio-viene-del-lago.wav,./stim/wavs/argentine_mismatch_declarative-broad-focus_Mi-novio-viene-del-lago.wav,./stim/wavs/castilian_mismatch_declarative-broad-focus_Mi-novio-viene-del-lago.wav,./stim/wavs/chilean_mismatch_declarative-broad-focus_Mi-novio-viene-del-lago.wav,./stim/wavs/cuban_mismatch_declarative-broad-focus_Mi-novio-viene-del-lago.wav,./stim/wavs/mexican_mismatch_declarative-broad-focus_Mi-novio-viene-del-lago.wav,./stim/wavs/peruvian_mismatch_declarative-broad-focus_Mi-novio-viene-del-lago.wav,./stim/wavs/puertorican_mismatch_declarative-broad-focus_Mi-novio-viene-del-lago.wav
,,,,,,,581030,and,001,andaluz,Sí,2022-10-27_10h06.02.090,empathy_intonation_perc_sp_and,2022.2.4,Win32,60.88650755,IwAR3HFfi9DLyj6bgQCFxLc1ZlUAtOpsT3wrFrteSC3WQ6WHx7_8mlFDyCkKA,,,,,,,,,,1,1,1,1.6713,0,13,13,57,1,58,./stim/wavs/andalusian_mismatch_interrogative-total-yn_El-hombre-mira-la-luna.wav,./stim/wavs/argentine_mismatch_interrogative-total-yn_El-hombre-mira-la-luna.wav,./stim/wavs/castilian_mismatch_interrogative-total-yn_El-hombre-mira-la-luna.wav,./stim/wavs/chilean_mismatch_interrogative-total-yn_El-hombre-mira-la-luna.wav,./stim/wavs/cuban_mismatch_interrogative-total-yn_El-hombre-mira-la-luna.wav,./stim/wavs/mexican_mismatch_interrogative-total-yn_El-hombre-mira-la-luna.wav,./stim/wavs/peruvian_mismatch_interrogative-total-yn_El-hombre-mira-la-luna.wav,./stim/wavs/puertorican_mismatch_interrogative-total-yn_El-hombre-mira-la-luna.wav
,,,,,,,581030,and,001,andaluz,Sí,2022-10-27_10h06.02.090,empathy_intonation_perc_sp_and,2022.2.4,Win32,60.88650755,IwAR3HFfi9DLyj6bgQCFxLc1ZlUAtOpsT3wrFrteSC3WQ6WHx7_8mlFDyCkKA,,,,,,,,,,1,1,1,1.5221,0,14,14,61,1,62,./stim/wavs/andalusian_mismatch_interrogative-total-yn_Mi-madre-come-la-fruta.wav,./stim/wavs/argentine_mismatch_interrogative-total-yn_Mi-madre-come-la-fruta.wav,./stim/wavs/castilian_mismatch_interrogative-total-yn_Mi-madre-come-la-fruta.wav,./stim/wavs/chilean_mismatch_interrogative-total-yn_Mi-madre-come-la-fruta.wav,./stim/wavs/cuban_mismatch_interrogative-total-yn_Mi-madre-come-la-fruta.wav,./stim/wavs/mexican_mismatch_interrogative-total-yn_Mi-madre-come-la-fruta.wav,./stim/wavs/peruvian_mismatch_interrogative-total-yn_Mi-madre-come-la-fruta.wav,./stim/wavs/puertorican_mismatch_interrogative-total-yn_Mi-madre-come-la-fruta.wav
,,,,,,,581030,and,001,andaluz,Sí,2022-10-27_10h06.02.090,empathy_intonation_perc_sp_and,2022.2.4,Win32,60.88650755,IwAR3HFfi9DLyj6bgQCFxLc1ZlUAtOpsT3wrFrteSC3WQ6WHx7_8mlFDyCkKA,,,,,,,,,,1,1,1,2.1337,0,15,15,62,1,63,./stim/wavs/andalusian_mismatch_interrogative-total-yn_Mi-novio-viene-del-lago.wav,./stim/wavs/argentine_mismatch_interrogative-total-yn_Mi-novio-viene-del-lago.wav,./stim/wavs/castilian_mismatch_interrogative-total-yn_Mi-novio-viene-del-lago.wav,./stim/wavs/chilean_mismatch_interrogative-total-yn_Mi-novio-viene-del-lago.wav,./stim/wavs/cuban_mismatch_interrogative-total-yn_Mi-novio-viene-del-lago.wav,./stim/wavs/mexican_mismatch_interrogative-total-yn_Mi-novio-viene-del-lago.wav,./stim/wavs/peruvian_mismatch_interrogative-total-yn_Mi-novio-viene-del-lago.wav,./stim/wavs/puertorican_mismatch_interrogative-total-yn_Mi-novio-viene-del-lago.wav
,,,,,,,581030,and,001,andaluz,Sí,2022-10-27_10h06.02.090,empathy_intonation_perc_sp_and,2022.2.4,Win32,60.88650755,IwAR3HFfi9DLyj6bgQCFxLc1ZlUAtOpsT3wrFrteSC3WQ6WHx7_8mlFDyCkKA,,,,,,,,,,1,1,1,1.4697,0,16,16,54,1,55,./stim/wavs/andalusian_mismatch_interrogative-partial-wh_Por-que-venia-del-lago.wav,./stim/wavs/argentine_mismatch_interrogative-partial-wh_Por-que-venia-del-lago.wav,./stim/wavs/castilian_mismatch_interrogative-partial-wh_Por-que-venia-del-lago.wav,./stim/wavs/chilean_mismatch_interrogative-partial-wh_Por-que-venia-del-lago.wav,./stim/wavs/cuban_mismatch_interrogative-partial-wh_Por-que-venia-del-lago.wav,./stim/wavs/mexican_mismatch_interrogative-partial-wh_Por-que-venia-del-lago.wav,./stim/wavs/peruvian_mismatch_interrogative-partial-wh_Por-que-venia-del-lago.wav,./stim/wavs/puertorican_mismatch_interrogative-partial-wh_Por-que-venia-del-lago.wav
,,,,,,,581030,and,001,andaluz,Sí,2022-10-27_10h06.02.090,empathy_intonation_perc_sp_and,2022.2.4,Win32,60.88650755,IwAR3HFfi9DLyj6bgQCFxLc1ZlUAtOpsT3wrFrteSC3WQ6WHx7_8mlFDyCkKA,,,,,,,,,,0,0,1,1.6351,0,17,17,45,1,46,./stim/wavs/andalusian_mismatch_declarative-narrow-focus_Mi-madre-come-la-fruta.wav,./stim/wavs/argentine_mismatch_declarative-narrow-focus_Mi-madre-come-la-fruta.wav,./stim/wavs/castilian_mismatch_declarative-narrow-focus_Mi-madre-come-la-fruta.wav,./stim/wavs/chilean_mismatch_declarative-narrow-focus_Mi-madre-come-la-fruta.wav,./stim/wavs/cuban_mismatch_declarative-narrow-focus_Mi-madre-come-la-fruta.wav,./stim/wavs/mexican_mismatch_declarative-narrow-focus_Mi-madre-come-la-fruta.wav,./stim/wavs/peruvian_mismatch_declarative-narrow-focus_Mi-madre-come-la-fruta.wav,./stim/wavs/puertorican_mismatch_declarative-narrow-focus_Mi-madre-come-la-fruta.wav
,,,,,,,581030,and,001,andaluz,Sí,2022-10-27_10h06.02.090,empathy_intonation_perc_sp_and,2022.2.4,Win32,60.88650755,IwAR3HFfi9DLyj6bgQCFxLc1ZlUAtOpsT3wrFrteSC3WQ6WHx7_8mlFDyCkKA,,,,,,,,,,1,1,1,1.7511,0,18,18,19,1,20,./stim/wavs/andalusian_match_interrogative-partial-wh_Cuando-vendia-el-carro.wav,./stim/wavs/argentine_match_interrogative-partial-wh_Cuando-vendia-el-carro.wav,./stim/wavs/castilian_match_interrogative-partial-wh_Cuando-vendia-el-carro.wav,./stim/wavs/chilean_match_interrogative-partial-wh_Cuando-vendia-el-carro.wav,./stim/wavs/cuban_match_interrogative-partial-wh_Cuando-vendia-el-carro.wav,./stim/wavs/mexican_match_interrogative-partial-wh_Cuando-vendia-el-carro.wav,./stim/wavs/peruvian_match_interrogative-partial-wh_Cuando-vendia-el-carro.wav,./stim/wavs/puertorican_match_interrogative-partial-wh_Cuando-vendia-el-carro.wav
,,,,,,,581030,and,001,andaluz,Sí,2022-10-27_10h06.02.090,empathy_intonation_perc_sp_and,2022.2.4,Win32,60.88650755,IwAR3HFfi9DLyj6bgQCFxLc1ZlUAtOpsT3wrFrteSC3WQ6WHx7_8mlFDyCkKA,,,,,,,,,,1,1,1,1.7018,0,19,19,59,1,60,./stim/wavs/andalusian_mismatch_interrogative-total-yn_La-maestra-vive-en-Paris.wav,./stim/wavs/argentine_mismatch_interrogative-total-yn_La-maestra-vive-en-Paris.wav,./stim/wavs/castilian_mismatch_interrogative-total-yn_La-maestra-vive-en-Paris.wav,./stim/wavs/chilean_mismatch_interrogative-total-yn_La-maestra-vive-en-Paris.wav,./stim/wavs/cuban_mismatch_interrogative-total-yn_La-maestra-vive-en-Paris.wav,./stim/wavs/mexican_mismatch_interrogative-total-yn_La-maestra-vive-en-Paris.wav,./stim/wavs/peruvian_mismatch_interrogative-total-yn_La-maestra-vive-en-Paris.wav,./stim/wavs/puertorican_mismatch_interrogative-total-yn_La-maestra-vive-en-Paris.wav
,,,,,,,581030,and,001,andaluz,Sí,2022-10-27_10h06.02.090,empathy_intonation_perc_sp_and,2022.2.4,Win32,60.88650755,IwAR3HFfi9DLyj6bgQCFxLc1ZlUAtOpsT3wrFrteSC3WQ6WHx7_8mlFDyCkKA,,,,,,,,,,1,1,1,1.8393,0,20,20,56,1,57,./stim/wavs/andalusian_mismatch_interrogative-total-yn_El-bebe-comia-muy-bien.wav,./stim/wavs/argentine_mismatch_interrogative-total-yn_El-bebe-comia-muy-bien.wav,./stim/wavs/castilian_mismatch_interrogative-total-yn_El-bebe-comia-muy-bien.wav,./stim/wavs/chilean_mismatch_interrogative-total-yn_El-bebe-comia-muy-bien.wav,./stim/wavs/cuban_mismatch_interrogative-total-yn_El-bebe-comia-muy-bien.wav,./stim/wavs/mexican_mismatch_interrogative-total-yn_El-bebe-comia-muy-bien.wav,./stim/wavs/peruvian_mismatch_interrogative-total-yn_El-bebe-comia-muy-bien.wav,./stim/wavs/puertorican_mismatch_interrogative-total-yn_El-bebe-comia-muy-bien.wav
,,,,,,,581030,and,001,andaluz,Sí,2022-10-27_10h06.02.090,empathy_intonation_perc_sp_and,2022.2.4,Win32,60.88650755,IwAR3HFfi9DLyj6bgQCFxLc1ZlUAtOpsT3wrFrteSC3WQ6WHx7_8mlFDyCkKA,,,,,,,,,,1,1,1,1.5107,0,21,21,28,1,29,./stim/wavs/andalusian_match_interrogative-total-yn_Manuela-vende-el-carro.wav,./stim/wavs/argentine_match_interrogative-total-yn_Manuela-vende-el-carro.wav,./stim/wavs/castilian_match_interrogative-total-yn_Manuela-vende-el-carro.wav,./stim/wavs/chilean_match_interrogative-total-yn_Manuela-vende-el-carro.wav,./stim/wavs/cuban_match_interrogative-total-yn_Manuela-vende-el-carro.wav,./stim/wavs/mexican_match_interrogative-total-yn_Manuela-vende-el-carro.wav,./stim/wavs/peruvian_match_interrogative-total-yn_Manuela-vende-el-carro.wav,./stim/wavs/puertorican_match_interrogative-total-yn_Manuela-vende-el-carro.wav
,,,,,,,581030,and,001,andaluz,Sí,2022-10-27_10h06.02.090,empathy_intonation_perc_sp_and,2022.2.4,Win32,60.88650755,IwAR3HFfi9DLyj6bgQCFxLc1ZlUAtOpsT3wrFrteSC3WQ6WHx7_8mlFDyCkKA,,,,,,,,,,1,1,1,1.6456,0,22,22,52,1,53,./stim/wavs/andalusian_mismatch_interrogative-partial-wh_Por-que-odiaba-la-lluvia.wav,./stim/wavs/argentine_mismatch_interrogative-partial-wh_Por-que-odiaba-la-lluvia.wav,./stim/wavs/castilian_mismatch_interrogative-partial-wh_Por-que-odiaba-la-lluvia.wav,./stim/wavs/chilean_mismatch_interrogative-partial-wh_Por-que-odiaba-la-lluvia.wav,./stim/wavs/cuban_mismatch_interrogative-partial-wh_Por-que-odiaba-la-lluvia.wav,./stim/wavs/mexican_mismatch_interrogative-partial-wh_Por-que-odiaba-la-lluvia.wav,./stim/wavs/peruvian_mismatch_interrogative-partial-wh_Por-que-odiaba-la-lluvia.wav,./stim/wavs/puertorican_mismatch_interrogative-partial-wh_Por-que-odiaba-la-lluvia.wav
,,,,,,,581030,and,001,andaluz,Sí,2022-10-27_10h06.02.090,empathy_intonation_perc_sp_and,2022.2.4,Win32,60.88650755,IwAR3HFfi9DLyj6bgQCFxLc1ZlUAtOpsT3wrFrteSC3WQ6WHx7_8mlFDyCkKA,,,,,,,,,,0,0,1,1.8269,0,23,23,37,1,38,./stim/wavs/andalusian_mismatch_declarative-broad-focus_Mi-madre-come-la-fruta.wav,./stim/wavs/argentine_mismatch_declarative-broad-focus_Mi-madre-come-la-fruta.wav,./stim/wavs/castilian_mismatch_declarative-broad-focus_Mi-madre-come-la-fruta.wav,./stim/wavs/chilean_mismatch_declarative-broad-focus_Mi-madre-come-la-fruta.wav,./stim/wavs/cuban_mismatch_declarative-broad-focus_Mi-madre-come-la-fruta.wav,./stim/wavs/mexican_mismatch_declarative-broad-focus_Mi-madre-come-la-fruta.wav,./stim/wavs/peruvian_mismatch_declarative-broad-focus_Mi-madre-come-la-fruta.wav,./stim/wavs/puertorican_mismatch_declarative-broad-focus_Mi-madre-come-la-fruta.wav
,,,,,,,581030,and,001,andaluz,Sí,2022-10-27_10h06.02.090,empathy_intonation_perc_sp_and,2022.2.4,Win32,60.88650755,IwAR3HFfi9DLyj6bgQCFxLc1ZlUAtOpsT3wrFrteSC3WQ6WHx7_8mlFDyCkKA,,,,,,,,,,1,1,1,1.5936,0,24,24,53,1,54,./stim/wavs/andalusian_mismatch_interrogative-partial-wh_Por-que-oia-el-rio.wav,./stim/wavs/argentine_mismatch_interrogative-partial-wh_Por-que-oia-el-rio.wav,./stim/wavs/castilian_mismatch_interrogative-partial-wh_Por-que-oia-el-rio.wav,./stim/wavs/chilean_mismatch_interrogative-partial-wh_Por-que-oia-el-rio.wav,./stim/wavs/cuban_mismatch_interrogative-partial-wh_Por-que-oia-el-rio.wav,./stim/wavs/mexican_mismatch_interrogative-partial-wh_Por-que-oia-el-rio.wav,./stim/wavs/peruvian_mismatch_interrogative-partial-wh_Por-que-oia-el-rio.wav,./stim/wavs/puertorican_mismatch_interrogative-partial-wh_Por-que-oia-el-rio.wav
,,,,,,,581030,and,001,andaluz,Sí,2022-10-27_10h06.02.090,empathy_intonation_perc_sp_and,2022.2.4,Win32,60.88650755,IwAR3HFfi9DLyj6bgQCFxLc1ZlUAtOpsT3wrFrteSC3WQ6WHx7_8mlFDyCkKA,,,,,,,,,,0,0,1,1.8011,0,25,25,44,1,45,./stim/wavs/andalusian_mismatch_declarative-narrow-focus_La-nina-lava-el-plato.wav,./stim/wavs/argentine_mismatch_declarative-narrow-focus_La-nina-lava-el-plato.wav,./stim/wavs/castilian_mismatch_declarative-narrow-focus_La-nina-lava-el-plato.wav,./stim/wavs/chilean_mismatch_declarative-narrow-focus_La-nina-lava-el-plato.wav,./stim/wavs/cuban_mismatch_declarative-narrow-focus_La-nina-lava-el-plato.wav,./stim/wavs/mexican_mismatch_declarative-narrow-focus_La-nina-lava-el-plato.wav,./stim/wavs/peruvian_mismatch_declarative-narrow-focus_La-nina-lava-el-plato.wav,./stim/wavs/puertorican_mismatch_declarative-narrow-focus_La-nina-lava-el-plato.wav
,,,,,,,581030,and,001,andaluz,Sí,2022-10-27_10h06.02.090,empathy_intonation_perc_sp_and,2022.2.4,Win32,60.88650755,IwAR3HFfi9DLyj6bgQCFxLc1ZlUAtOpsT3wrFrteSC3WQ6WHx7_8mlFDyCkKA,,,,,,,,,,1,1,1,1.6421,0,26,26,27,1,28,./stim/wavs/andalusian_match_interrogative-total-yn_Emilio-ama-la-marcha.wav,./stim/wavs/argentine_match_interrogative-total-yn_Emilio-ama-la-marcha.wav,./stim/wavs/castilian_match_interrogative-total-yn_Emilio-ama-la-marcha.wav,./stim/wavs/chilean_match_interrogative-total-yn_Emilio-ama-la-marcha.wav,./stim/wavs/cuban_match_interrogative-total-yn_Emilio-ama-la-marcha.wav,./stim/wavs/mexican_match_interrogative-total-yn_Emilio-ama-la-marcha.wav,./stim/wavs/peruvian_match_interrogative-total-yn_Emilio-ama-la-marcha.wav,./stim/wavs/puertorican_match_interrogative-total-yn_Emilio-ama-la-marcha.wav
,,,,,,,581030,and,001,andaluz,Sí,2022-10-27_10h06.02.090,empathy_intonation_perc_sp_and,2022.2.4,Win32,60.88650755,IwAR3HFfi9DLyj6bgQCFxLc1ZlUAtOpsT3wrFrteSC3WQ6WHx7_8mlFDyCkKA,,,,,,,,,,1,1,1,1.5559,0,27,27,50,1,51,./stim/wavs/andalusian_mismatch_interrogative-partial-wh_Cuando-miraba-la-luna.wav,./stim/wavs/argentine_mismatch_interrogative-partial-wh_Cuando-miraba-la-luna.wav,./stim/wavs/castilian_mismatch_interrogative-partial-wh_Cuando-miraba-la-luna.wav,./stim/wavs/chilean_mismatch_interrogative-partial-wh_Cuando-miraba-la-luna.wav,./stim/wavs/cuban_mismatch_interrogative-partial-wh_Cuando-miraba-la-luna.wav,./stim/wavs/mexican_mismatch_interrogative-partial-wh_Cuando-miraba-la-luna.wav,./stim/wavs/peruvian_mismatch_interrogative-partial-wh_Cuando-miraba-la-luna.wav,./stim/wavs/puertorican_mismatch_interrogative-partial-wh_Cuando-miraba-la-luna.wav
,,,,,,,581030,and,001,andaluz,Sí,2022-10-27_10h06.02.090,empathy_intonation_perc_sp_and,2022.2.4,Win32,60.88650755,IwAR3HFfi9DLyj6bgQCFxLc1ZlUAtOpsT3wrFrteSC3WQ6WHx7_8mlFDyCkKA,,,,,,,,,,1,1,1,2.1696,0,28,28,30,1,31,./stim/wavs/andalusian_match_interrogative-total-yn_Mariano-habla-del-tiempo.wav,./stim/wavs/argentine_match_interrogative-total-yn_Mariano-habla-del-tiempo.wav,./stim/wavs/castilian_match_interrogative-total-yn_Mariano-habla-del-tiempo.wav,./stim/wavs/chilean_match_interrogative-total-yn_Mariano-habla-del-tiempo.wav,./stim/wavs/cuban_match_interrogative-total-yn_Mariano-habla-del-tiempo.wav,./stim/wavs/mexican_match_interrogative-total-yn_Mariano-habla-del-tiempo.wav,./stim/wavs/peruvian_match_interrogative-total-yn_Mariano-habla-del-tiempo.wav,./stim/wavs/puertorican_match_interrogative-total-yn_Mariano-habla-del-tiempo.wav
,,,,,,,581030,and,001,andaluz,Sí,2022-10-27_10h06.02.090,empathy_intonation_perc_sp_and,2022.2.4,Win32,60.88650755,IwAR3HFfi9DLyj6bgQCFxLc1ZlUAtOpsT3wrFrteSC3WQ6WHx7_8mlFDyCkKA,,,,,,,,,,1,1,1,1.9186,0,29,29,63,1,64,./stim/wavs/andalusian_mismatch_interrogative-total-yn_Mi-tia-odia-la-lluvia.wav,./stim/wavs/argentine_mismatch_interrogative-total-yn_Mi-tia-odia-la-lluvia.wav,./stim/wavs/castilian_mismatch_interrogative-total-yn_Mi-tia-odia-la-lluvia.wav,./stim/wavs/chilean_mismatch_interrogative-total-yn_Mi-tia-odia-la-lluvia.wav,./stim/wavs/cuban_mismatch_interrogative-total-yn_Mi-tia-odia-la-lluvia.wav,./stim/wavs/mexican_mismatch_interrogative-total-yn_Mi-tia-odia-la-lluvia.wav,./stim/wavs/peruvian_mismatch_interrogative-total-yn_Mi-tia-odia-la-lluvia.wav,./stim/wavs/puertorican_mismatch_interrogative-total-yn_Mi-tia-odia-la-lluvia.wav
,,,,,,,581030,and,001,andaluz,Sí,2022-10-27_10h06.02.090,empathy_intonation_perc_sp_and,2022.2.4,Win32,60.88650755,IwAR3HFfi9DLyj6bgQCFxLc1ZlUAtOpsT3wrFrteSC3WQ6WHx7_8mlFDyCkKA,,,,,,,,,,0,0,1,1.8683,0,30,30,14,1,15,./stim/wavs/andalusian_match_declarative-narrow-focus_Mariano-habla-del-tiempo.wav,./stim/wavs/argentine_match_declarative-narrow-focus_Mariano-habla-del-tiempo.wav,./stim/wavs/castilian_match_declarative-narrow-focus_Mariano-habla-del-tiempo.wav,./stim/wavs/chilean_match_declarative-narrow-focus_Mariano-habla-del-tiempo.wav,./stim/wavs/cuban_match_declarative-narrow-focus_Mariano-habla-del-tiempo.wav,./stim/wavs/mexican_match_declarative-narrow-focus_Mariano-habla-del-tiempo.wav,./stim/wavs/peruvian_match_declarative-narrow-focus_Mariano-habla-del-tiempo.wav,./stim/wavs/puertorican_match_declarative-narrow-focus_Mariano-habla-del-tiempo.wav
,,,,,,,581030,and,001,andaluz,Sí,2022-10-27_10h06.02.090,empathy_intonation_perc_sp_and,2022.2.4,Win32,60.88650755,IwAR3HFfi9DLyj6bgQCFxLc1ZlUAtOpsT3wrFrteSC3WQ6WHx7_8mlFDyCkKA,,,,,,,,,,0,0,1,1.652,0,31,31,2,1,3,./stim/wavs/andalusian_match_declarative-broad-focus_David-leia-el-libro.wav,./stim/wavs/argentine_match_declarative-broad-focus_David-leia-el-libro.wav,./stim/wavs/castilian_match_declarative-broad-focus_David-leia-el-libro.wav,./stim/wavs/chilean_match_declarative-broad-focus_David-leia-el-libro.wav,./stim/wavs/cuban_match_declarative-broad-focus_David-leia-el-libro.wav,./stim/wavs/mexican_match_declarative-broad-focus_David-leia-el-libro.wav,./stim/wavs/peruvian_match_declarative-broad-focus_David-leia-el-libro.wav,./stim/wavs/puertorican_match_declarative-broad-focus_David-leia-el-libro.wav
,,,,,,,581030,and,001,andaluz,Sí,2022-10-27_10h06.02.090,empathy_intonation_perc_sp_and,2022.2.4,Win32,60.88650755,IwAR3HFfi9DLyj6bgQCFxLc1ZlUAtOpsT3wrFrteSC3WQ6WHx7_8mlFDyCkKA,,,,,,,,,,0,0,1,1.7693,0,32,32,32,1,33,./stim/wavs/andalusian_mismatch_declarative-broad-focus_El-bebe-comia-muy-bien.wav,./stim/wavs/argentine_mismatch_declarative-broad-focus_El-bebe-comia-muy-bien.wav,./stim/wavs/castilian_mismatch_declarative-broad-focus_El-bebe-comia-muy-bien.wav,./stim/wavs/chilean_mismatch_declarative-broad-focus_El-bebe-comia-muy-bien.wav,./stim/wavs/cuban_mismatch_declarative-broad-focus_El-bebe-comia-muy-bien.wav,./stim/wavs/mexican_mismatch_declarative-broad-focus_El-bebe-comia-muy-bien.wav,./stim/wavs/peruvian_mismatch_declarative-broad-focus_El-bebe-comia-muy-bien.wav,./stim/wavs/puertorican_mismatch_declarative-broad-focus_El-bebe-comia-muy-bien.wav
,,,,,,,581030,and,001,andaluz,Sí,2022-10-27_10h06.02.090,empathy_intonation_perc_sp_and,2022.2.4,Win32,60.88650755,IwAR3HFfi9DLyj6bgQCFxLc1ZlUAtOpsT3wrFrteSC3WQ6WHx7_8mlFDyCkKA,,,,,,,,,,1,1,1,1.6685,0,33,33,31,1,32,./stim/wavs/andalusian_match_interrogative-total-yn_Marta-abre-el-regalo.wav,./stim/wavs/argentine_match_interrogative-total-yn_Marta-abre-el-regalo.wav,./stim/wavs/castilian_match_interrogative-total-yn_Marta-abre-el-regalo.wav,./stim/wavs/chilean_match_interrogative-total-yn_Marta-abre-el-regalo.wav,./stim/wavs/cuban_match_interrogative-total-yn_Marta-abre-el-regalo.wav,./stim/wavs/mexican_match_interrogative-total-yn_Marta-abre-el-regalo.wav,./stim/wavs/peruvian_match_interrogative-total-yn_Marta-abre-el-regalo.wav,./stim/wavs/puertorican_match_interrogative-total-yn_Marta-abre-el-regalo.wav
,,,,,,,581030,and,001,andaluz,Sí,2022-10-27_10h06.02.090,empathy_intonation_perc_sp_and,2022.2.4,Win32,60.88650755,IwAR3HFfi9DLyj6bgQCFxLc1ZlUAtOpsT3wrFrteSC3WQ6WHx7_8mlFDyCkKA,,,,,,,,,,1,0,0,5.4633,0,34,34,51,1,52,./stim/wavs/andalusian_mismatch_interrogative-partial-wh_Por-que-desayuna-muy-bien.wav,./stim/wavs/argentine_mismatch_interrogative-partial-wh_Por-que-desayuna-muy-bien.wav,./stim/wavs/castilian_mismatch_interrogative-partial-wh_Por-que-desayuna-muy-bien.wav,./stim/wavs/chilean_mismatch_interrogative-partial-wh_Por-que-desayuna-muy-bien.wav,./stim/wavs/cuban_mismatch_interrogative-partial-wh_Por-que-desayuna-muy-bien.wav,./stim/wavs/mexican_mismatch_interrogative-partial-wh_Por-que-desayuna-muy-bien.wav,./stim/wavs/peruvian_mismatch_interrogative-partial-wh_Por-que-desayuna-muy-bien.wav,./stim/wavs/puertorican_mismatch_interrogative-partial-wh_Por-que-desayuna-muy-bien.wav
,,,,,,,581030,and,001,andaluz,Sí,2022-10-27_10h06.02.090,empathy_intonation_perc_sp_and,2022.2.4,Win32,60.88650755,IwAR3HFfi9DLyj6bgQCFxLc1ZlUAtOpsT3wrFrteSC3WQ6WHx7_8mlFDyCkKA,,,,,,,,,,0,0,1,1.8262,0,35,35,7,1,8,./stim/wavs/andalusian_match_declarative-broad-focus_Marta-abre-el-regalo.wav,./stim/wavs/argentine_match_declarative-broad-focus_Marta-abre-el-regalo.wav,./stim/wavs/castilian_match_declarative-broad-focus_Marta-abre-el-regalo.wav,./stim/wavs/chilean_match_declarative-broad-focus_Marta-abre-el-regalo.wav,./stim/wavs/cuban_match_declarative-broad-focus_Marta-abre-el-regalo.wav,./stim/wavs/mexican_match_declarative-broad-focus_Marta-abre-el-regalo.wav,./stim/wavs/peruvian_match_declarative-broad-focus_Marta-abre-el-regalo.wav,./stim/wavs/puertorican_match_declarative-broad-focus_Marta-abre-el-regalo.wav
,,,,,,,581030,and,001,andaluz,Sí,2022-10-27_10h06.02.090,empathy_intonation_perc_sp_and,2022.2.4,Win32,60.88650755,IwAR3HFfi9DLyj6bgQCFxLc1ZlUAtOpsT3wrFrteSC3WQ6WHx7_8mlFDyCkKA,,,,,,,,,,0,0,1,1.8068,0,36,36,46,1,47,./stim/wavs/andalusian_mismatch_declarative-narrow-focus_Mi-novio-viene-del-lago.wav,./stim/wavs/argentine_mismatch_declarative-narrow-focus_Mi-novio-viene-del-lago.wav,./stim/wavs/castilian_mismatch_declarative-narrow-focus_Mi-novio-viene-del-lago.wav,./stim/wavs/chilean_mismatch_declarative-narrow-focus_Mi-novio-viene-del-lago.wav,./stim/wavs/cuban_mismatch_declarative-narrow-focus_Mi-novio-viene-del-lago.wav,./stim/wavs/mexican_mismatch_declarative-narrow-focus_Mi-novio-viene-del-lago.wav,./stim/wavs/peruvian_mismatch_declarative-narrow-focus_Mi-novio-viene-del-lago.wav,./stim/wavs/puertorican_mismatch_declarative-narrow-focus_Mi-novio-viene-del-lago.wav
,,,,,,,581030,and,001,andaluz,Sí,2022-10-27_10h06.02.090,empathy_intonation_perc_sp_and,2022.2.4,Win32,60.88650755,IwAR3HFfi9DLyj6bgQCFxLc1ZlUAtOpsT3wrFrteSC3WQ6WHx7_8mlFDyCkKA,,,,,,,,,,0,0,1,1.7256,0,37,37,4,1,5,./stim/wavs/andalusian_match_declarative-broad-focus_Manuela-vende-el-carro.wav,./stim/wavs/argentine_match_declarative-broad-focus_Manuela-vende-el-carro.wav,./stim/wavs/castilian_match_declarative-broad-focus_Manuela-vende-el-carro.wav,./stim/wavs/chilean_match_declarative-broad-focus_Manuela-vende-el-carro.wav,./stim/wavs/cuban_match_declarative-broad-focus_Manuela-vende-el-carro.wav,./stim/wavs/mexican_match_declarative-broad-focus_Manuela-vende-el-carro.wav,./stim/wavs/peruvian_match_declarative-broad-focus_Manuela-vende-el-carro.wav,./stim/wavs/puertorican_match_declarative-broad-focus_Manuela-vende-el-carro.wav
,,,,,,,581030,and,001,andaluz,Sí,2022-10-27_10h06.02.090,empathy_intonation_perc_sp_and,2022.2.4,Win32,60.88650755,IwAR3HFfi9DLyj6bgQCFxLc1ZlUAtOpsT3wrFrteSC3WQ6WHx7_8mlFDyCkKA,,,,,,,,,,0,0,1,1.627,0,38,38,3,1,4,./stim/wavs/andalusian_match_declarative-broad-focus_Emilio-ama-la-marcha.wav,./stim/wavs/argentine_match_declarative-broad-focus_Emilio-ama-la-marcha.wav,./stim/wavs/castilian_match_declarative-broad-focus_Emilio-ama-la-marcha.wav,./stim/wavs/chilean_match_declarative-broad-focus_Emilio-ama-la-marcha.wav,./stim/wavs/cuban_match_declarative-broad-focus_Emilio-ama-la-marcha.wav,./stim/wavs/mexican_match_declarative-broad-focus_Emilio-ama-la-marcha.wav,./stim/wavs/peruvian_match_declarative-broad-focus_Emilio-ama-la-marcha.wav,./stim/wavs/puertorican_match_declarative-broad-focus_Emilio-ama-la-marcha.wav
,,,,,,,581030,and,001,andaluz,Sí,2022-10-27_10h06.02.090,empathy_intonation_perc_sp_and,2022.2.4,Win32,60.88650755,IwAR3HFfi9DLyj6bgQCFxLc1ZlUAtOpsT3wrFrteSC3WQ6WHx7_8mlFDyCkKA,,,,,,,,,,1,1,1,1.6063,0,39,39,24,1,25,./stim/wavs/andalusian_match_interrogative-total-yn_Ana-lleva-el-abrigo.wav,./stim/wavs/argentine_match_interrogative-total-yn_Ana-lleva-el-abrigo.wav,./stim/wavs/castilian_match_interrogative-total-yn_Ana-lleva-el-abrigo.wav,./stim/wavs/chilean_match_interrogative-total-yn_Ana-lleva-el-abrigo.wav,./stim/wavs/cuban_match_interrogative-total-yn_Ana-lleva-el-abrigo.wav,./stim/wavs/mexican_match_interrogative-total-yn_Ana-lleva-el-abrigo.wav,./stim/wavs/peruvian_match_interrogative-total-yn_Ana-lleva-el-abrigo.wav,./stim/wavs/puertorican_match_interrogative-total-yn_Ana-lleva-el-abrigo.wav
,,,,,,,581030,and,001,andaluz,Sí,2022-10-27_10h06.02.090,empathy_intonation_perc_sp_and,2022.2.4,Win32,60.88650755,IwAR3HFfi9DLyj6bgQCFxLc1ZlUAtOpsT3wrFrteSC3WQ6WHx7_8mlFDyCkKA,,,,,,,,,,0,0,1,1.8548,0,40,40,39,1,40,./stim/wavs/andalusian_mismatch_declarative-broad-focus_Mi-tia-odia-la-lluvia.wav,./stim/wavs/argentine_mismatch_declarative-broad-focus_Mi-tia-odia-la-lluvia.wav,./stim/wavs/castilian_mismatch_declarative-broad-focus_Mi-tia-odia-la-lluvia.wav,./stim/wavs/chilean_mismatch_declarative-broad-focus_Mi-tia-odia-la-lluvia.wav,./stim/wavs/cuban_mismatch_declarative-broad-focus_Mi-tia-odia-la-lluvia.wav,./stim/wavs/mexican_mismatch_declarative-broad-focus_Mi-tia-odia-la-lluvia.wav,./stim/wavs/peruvian_mismatch_declarative-broad-focus_Mi-tia-odia-la-lluvia.wav,./stim/wavs/puertorican_mismatch_declarative-broad-focus_Mi-tia-odia-la-lluvia.wav
,,,,,,,581030,and,001,andaluz,Sí,2022-10-27_10h06.02.090,empathy_intonation_perc_sp_and,2022.2.4,Win32,60.88650755,IwAR3HFfi9DLyj6bgQCFxLc1ZlUAtOpsT3wrFrteSC3WQ6WHx7_8mlFDyCkKA,,,,,,,,,,0,0,1,1.7544,0,41,41,40,1,41,./stim/wavs/andalusian_mismatch_declarative-narrow-focus_El-bebe-comia-muy-bien.wav,./stim/wavs/argentine_mismatch_declarative-narrow-focus_El-bebe-comia-muy-bien.wav,./stim/wavs/castilian_mismatch_declarative-narrow-focus_El-bebe-comia-muy-bien.wav,./stim/wavs/chilean_mismatch_declarative-narrow-focus_El-bebe-comia-muy-bien.wav,./stim/wavs/cuban_mismatch_declarative-narrow-focus_El-bebe-comia-muy-bien.wav,./stim/wavs/mexican_mismatch_declarative-narrow-focus_El-bebe-comia-muy-bien.wav,./stim/wavs/peruvian_mismatch_declarative-narrow-focus_El-bebe-comia-muy-bien.wav,./stim/wavs/puertorican_mismatch_declarative-narrow-focus_El-bebe-comia-muy-bien.wav
,,,,,,,581030,and,001,andaluz,Sí,2022-10-27_10h06.02.090,empathy_intonation_perc_sp_and,2022.2.4,Win32,60.88650755,IwAR3HFfi9DLyj6bgQCFxLc1ZlUAtOpsT3wrFrteSC3WQ6WHx7_8mlFDyCkKA,,,,,,,,,,0,0,1,1.7107,0,42,42,10,1,11,./stim/wavs/andalusian_match_declarative-narrow-focus_David-leia-el-libro.wav,./stim/wavs/argentine_match_declarative-narrow-focus_David-leia-el-libro.wav,./stim/wavs/castilian_match_declarative-narrow-focus_David-leia-el-libro.wav,./stim/wavs/chilean_match_declarative-narrow-focus_David-leia-el-libro.wav,./stim/wavs/cuban_match_declarative-narrow-focus_David-leia-el-libro.wav,./stim/wavs/mexican_match_declarative-narrow-focus_David-leia-el-libro.wav,./stim/wavs/peruvian_match_declarative-narrow-focus_David-leia-el-libro.wav,./stim/wavs/puertorican_match_declarative-narrow-focus_David-leia-el-libro.wav
,,,,,,,581030,and,001,andaluz,Sí,2022-10-27_10h06.02.090,empathy_intonation_perc_sp_and,2022.2.4,Win32,60.88650755,IwAR3HFfi9DLyj6bgQCFxLc1ZlUAtOpsT3wrFrteSC3WQ6WHx7_8mlFDyCkKA,,,,,,,,,,0,0,1,2.2515,0,43,43,8,1,9,./stim/wavs/andalusian_match_declarative-narrow-focus_Ana-lleva-el-abrigo.wav,./stim/wavs/argentine_match_declarative-narrow-focus_Ana-lleva-el-abrigo.wav,./stim/wavs/castilian_match_declarative-narrow-focus_Ana-lleva-el-abrigo.wav,./stim/wavs/chilean_match_declarative-narrow-focus_Ana-lleva-el-abrigo.wav,./stim/wavs/cuban_match_declarative-narrow-focus_Ana-lleva-el-abrigo.wav,./stim/wavs/mexican_match_declarative-narrow-focus_Ana-lleva-el-abrigo.wav,./stim/wavs/peruvian_match_declarative-narrow-focus_Ana-lleva-el-abrigo.wav,./stim/wavs/puertorican_match_declarative-narrow-focus_Ana-lleva-el-abrigo.wav
,,,,,,,581030,and,001,andaluz,Sí,2022-10-27_10h06.02.090,empathy_intonation_perc_sp_and,2022.2.4,Win32,60.88650755,IwAR3HFfi9DLyj6bgQCFxLc1ZlUAtOpsT3wrFrteSC3WQ6WHx7_8mlFDyCkKA,,,,,,,,,,0,0,1,1.5905,0,44,44,0,1,1,./stim/wavs/andalusian_match_declarative-broad-focus_Ana-lleva-el-abrigo.wav,./stim/wavs/argentine_match_declarative-broad-focus_Ana-lleva-el-abrigo.wav,./stim/wavs/castilian_match_declarative-broad-focus_Ana-lleva-el-abrigo.wav,./stim/wavs/chilean_match_declarative-broad-focus_Ana-lleva-el-abrigo.wav,./stim/wavs/cuban_match_declarative-broad-focus_Ana-lleva-el-abrigo.wav,./stim/wavs/mexican_match_declarative-broad-focus_Ana-lleva-el-abrigo.wav,./stim/wavs/peruvian_match_declarative-broad-focus_Ana-lleva-el-abrigo.wav,./stim/wavs/puertorican_match_declarative-broad-focus_Ana-lleva-el-abrigo.wav
,,,,,,,581030,and,001,andaluz,Sí,2022-10-27_10h06.02.090,empathy_intonation_perc_sp_and,2022.2.4,Win32,60.88650755,IwAR3HFfi9DLyj6bgQCFxLc1ZlUAtOpsT3wrFrteSC3WQ6WHx7_8mlFDyCkKA,,,,,,,,,,0,0,1,1.5678,0,45,45,33,1,34,./stim/wavs/andalusian_mismatch_declarative-broad-focus_El-hombre-mira-la-luna.wav,./stim/wavs/argentine_mismatch_declarative-broad-focus_El-hombre-mira-la-luna.wav,./stim/wavs/castilian_mismatch_declarative-broad-focus_El-hombre-mira-la-luna.wav,./stim/wavs/chilean_mismatch_declarative-broad-focus_El-hombre-mira-la-luna.wav,./stim/wavs/cuban_mismatch_declarative-broad-focus_El-hombre-mira-la-luna.wav,./stim/wavs/mexican_mismatch_declarative-broad-focus_El-hombre-mira-la-luna.wav,./stim/wavs/peruvian_mismatch_declarative-broad-focus_El-hombre-mira-la-luna.wav,./stim/wavs/puertorican_mismatch_declarative-broad-focus_El-hombre-mira-la-luna.wav
,,,,,,,581030,and,001,andaluz,Sí,2022-10-27_10h06.02.090,empathy_intonation_perc_sp_and,2022.2.4,Win32,60.88650755,IwAR3HFfi9DLyj6bgQCFxLc1ZlUAtOpsT3wrFrteSC3WQ6WHx7_8mlFDyCkKA,,,,,,,,,,0,0,1,1.7512,0,46,46,36,1,37,./stim/wavs/andalusian_mismatch_declarative-broad-focus_La-nina-lava-el-plato.wav,./stim/wavs/argentine_mismatch_declarative-broad-focus_La-nina-lava-el-plato.wav,./stim/wavs/castilian_mismatch_declarative-broad-focus_La-nina-lava-el-plato.wav,./stim/wavs/chilean_mismatch_declarative-broad-focus_La-nina-lava-el-plato.wav,./stim/wavs/cuban_mismatch_declarative-broad-focus_La-nina-lava-el-plato.wav,./stim/wavs/mexican_mismatch_declarative-broad-focus_La-nina-lava-el-plato.wav,./stim/wavs/peruvian_mismatch_declarative-broad-focus_La-nina-lava-el-plato.wav,./stim/wavs/puertorican_mismatch_declarative-broad-focus_La-nina-lava-el-plato.wav
,,,,,,,581030,and,001,andaluz,Sí,2022-10-27_10h06.02.090,empathy_intonation_perc_sp_and,2022.2.4,Win32,60.88650755,IwAR3HFfi9DLyj6bgQCFxLc1ZlUAtOpsT3wrFrteSC3WQ6WHx7_8mlFDyCkKA,,,,,,,,,,1,1,1,1.7124,0,47,47,23,1,24,./stim/wavs/andalusian_match_interrogative-partial-wh_Por-que-iba-a-Bolivia.wav,./stim/wavs/argentine_match_interrogative-partial-wh_Por-que-iba-a-Bolivia.wav,./stim/wavs/castilian_match_interrogative-partial-wh_Por-que-iba-a-Bolivia.wav,./stim/wavs/chilean_match_interrogative-partial-wh_Por-que-iba-a-Bolivia.wav,./stim/wavs/cuban_match_interrogative-partial-wh_Por-que-iba-a-Bolivia.wav,./stim/wavs/mexican_match_interrogative-partial-wh_Por-que-iba-a-Bolivia.wav,./stim/wavs/peruvian_match_interrogative-partial-wh_Por-que-iba-a-Bolivia.wav,./stim/wavs/puertorican_match_interrogative-partial-wh_Por-que-iba-a-Bolivia.wav
,,,,,,,581030,and,001,andaluz,Sí,2022-10-27_10h06.02.090,empathy_intonation_perc_sp_and,2022.2.4,Win32,60.88650755,IwAR3HFfi9DLyj6bgQCFxLc1ZlUAtOpsT3wrFrteSC3WQ6WHx7_8mlFDyCkKA,,,,,,,,,,0,0,1,1.9015,0,48,48,5,1,6,./stim/wavs/andalusian_match_declarative-broad-focus_Maria-bebe-el-vino.wav,./stim/wavs/argentine_match_declarative-broad-focus_Maria-bebe-el-vino.wav,./stim/wavs/castilian_match_declarative-broad-focus_Maria-bebe-el-vino.wav,./stim/wavs/chilean_match_declarative-broad-focus_Maria-bebe-el-vino.wav,./stim/wavs/cuban_match_declarative-broad-focus_Maria-bebe-el-vino.wav,./stim/wavs/mexican_match_declarative-broad-focus_Maria-bebe-el-vino.wav,./stim/wavs/peruvian_match_declarative-broad-focus_Maria-bebe-el-vino.wav,./stim/wavs/puertorican_match_declarative-broad-focus_Maria-bebe-el-vino.wav
,,,,,,,581030,and,001,andaluz,Sí,2022-10-27_10h06.02.090,empathy_intonation_perc_sp_and,2022.2.4,Win32,60.88650755,IwAR3HFfi9DLyj6bgQCFxLc1ZlUAtOpsT3wrFrteSC3WQ6WHx7_8mlFDyCkKA,,,,,,,,,,1,1,1,1.8335,0,49,49,60,1,61,./stim/wavs/andalusian_mismatch_interrogative-total-yn_La-nina-lava-el-plato.wav,./stim/wavs/argentine_mismatch_interrogative-total-yn_La-nina-lava-el-plato.wav,./stim/wavs/castilian_mismatch_interrogative-total-yn_La-nina-lava-el-plato.wav,./stim/wavs/chilean_mismatch_interrogative-total-yn_La-nina-lava-el-plato.wav,./stim/wavs/cuban_mismatch_interrogative-total-yn_La-nina-lava-el-plato.wav,./stim/wavs/mexican_mismatch_interrogative-total-yn_La-nina-lava-el-plato.wav,./stim/wavs/peruvian_mismatch_interrogative-total-yn_La-nina-lava-el-plato.wav,./stim/wavs/puertorican_mismatch_interrogative-total-yn_La-nina-lava-el-plato.wav
,,,,,,,581030,and,001,andaluz,Sí,2022-10-27_10h06.02.090,empathy_intonation_perc_sp_and,2022.2.4,Win32,60.88650755,IwAR3HFfi9DLyj6bgQCFxLc1ZlUAtOpsT3wrFrteSC3WQ6WHx7_8mlFDyCkKA,,,,,,,,,,1,1,1,3.8034,0,50,50,17,1,18,./stim/wavs/andalusian_match_interrogative-partial-wh_Cuando-leia-el-libro.wav,./stim/wavs/argentine_match_interrogative-partial-wh_Cuando-leia-el-libro.wav,./stim/wavs/castilian_match_interrogative-partial-wh_Cuando-leia-el-libro.wav,./stim/wavs/chilean_match_interrogative-partial-wh_Cuando-leia-el-libro.wav,./stim/wavs/cuban_match_interrogative-partial-wh_Cuando-leia-el-libro.wav,./stim/wavs/mexican_match_interrogative-partial-wh_Cuando-leia-el-libro.wav,./stim/wavs/peruvian_match_interrogative-partial-wh_Cuando-leia-el-libro.wav,./stim/wavs/puertorican_match_interrogative-partial-wh_Cuando-leia-el-libro.wav
,,,,,,,581030,and,001,andaluz,Sí,2022-10-27_10h06.02.090,empathy_intonation_perc_sp_and,2022.2.4,Win32,60.88650755,IwAR3HFfi9DLyj6bgQCFxLc1ZlUAtOpsT3wrFrteSC3WQ6WHx7_8mlFDyCkKA,,,,,,,,,,1,1,1,1.7678,0,51,51,26,1,27,./stim/wavs/andalusian_match_interrogative-total-yn_David-leia-el-libro.wav,./stim/wavs/argentine_match_interrogative-total-yn_David-leia-el-libro.wav,./stim/wavs/castilian_match_interrogative-total-yn_David-leia-el-libro.wav,./stim/wavs/chilean_match_interrogative-total-yn_David-leia-el-libro.wav,./stim/wavs/cuban_match_interrogative-total-yn_David-leia-el-libro.wav,./stim/wavs/mexican_match_interrogative-total-yn_David-leia-el-libro.wav,./stim/wavs/peruvian_match_interrogative-total-yn_David-leia-el-libro.wav,./stim/wavs/puertorican_match_interrogative-total-yn_David-leia-el-libro.wav
,,,,,,,581030,and,001,andaluz,Sí,2022-10-27_10h06.02.090,empathy_intonation_perc_sp_and,2022.2.4,Win32,60.88650755,IwAR3HFfi9DLyj6bgQCFxLc1ZlUAtOpsT3wrFrteSC3WQ6WHx7_8mlFDyCkKA,,,,,,,,,,0,0,1,2.9903,0,52,52,47,1,48,./stim/wavs/andalusian_mismatch_declarative-narrow-focus_Mi-tia-odia-la-lluvia.wav,./stim/wavs/argentine_mismatch_declarative-narrow-focus_Mi-tia-odia-la-lluvia.wav,./stim/wavs/castilian_mismatch_declarative-narrow-focus_Mi-tia-odia-la-lluvia.wav,./stim/wavs/chilean_mismatch_declarative-narrow-focus_Mi-tia-odia-la-lluvia.wav,./stim/wavs/cuban_mismatch_declarative-narrow-focus_Mi-tia-odia-la-lluvia.wav,./stim/wavs/mexican_mismatch_declarative-narrow-focus_Mi-tia-odia-la-lluvia.wav,./stim/wavs/peruvian_mismatch_declarative-narrow-focus_Mi-tia-odia-la-lluvia.wav,./stim/wavs/puertorican_mismatch_declarative-narrow-focus_Mi-tia-odia-la-lluvia.wav
,,,,,,,581030,and,001,andaluz,Sí,2022-10-27_10h06.02.090,empathy_intonation_perc_sp_and,2022.2.4,Win32,60.88650755,IwAR3HFfi9DLyj6bgQCFxLc1ZlUAtOpsT3wrFrteSC3WQ6WHx7_8mlFDyCkKA,,,,,,,,,,1,1,1,1.7849,0,53,53,58,1,59,./stim/wavs/andalusian_mismatch_interrogative-total-yn_El-nino-oye-el-rio.wav,./stim/wavs/argentine_mismatch_interrogative-total-yn_El-nino-oye-el-rio.wav,./stim/wavs/castilian_mismatch_interrogative-total-yn_El-nino-oye-el-rio.wav,./stim/wavs/chilean_mismatch_interrogative-total-yn_El-nino-oye-el-rio.wav,./stim/wavs/cuban_mismatch_interrogative-total-yn_El-nino-oye-el-rio.wav,./stim/wavs/mexican_mismatch_interrogative-total-yn_El-nino-oye-el-rio.wav,./stim/wavs/peruvian_mismatch_interrogative-total-yn_El-nino-oye-el-rio.wav,./stim/wavs/puertorican_mismatch_interrogative-total-yn_El-nino-oye-el-rio.wav
,,,,,,,581030,and,001,andaluz,Sí,2022-10-27_10h06.02.090,empathy_intonation_perc_sp_and,2022.2.4,Win32,60.88650755,IwAR3HFfi9DLyj6bgQCFxLc1ZlUAtOpsT3wrFrteSC3WQ6WHx7_8mlFDyCkKA,,,,,,,,,,0,0,1,1.7903,0,54,54,43,1,44,./stim/wavs/andalusian_mismatch_declarative-narrow-focus_La-maestra-vive-en-Paris.wav,./stim/wavs/argentine_mismatch_declarative-narrow-focus_La-maestra-vive-en-Paris.wav,./stim/wavs/castilian_mismatch_declarative-narrow-focus_La-maestra-vive-en-Paris.wav,./stim/wavs/chilean_mismatch_declarative-narrow-focus_La-maestra-vive-en-Paris.wav,./stim/wavs/cuban_mismatch_declarative-narrow-focus_La-maestra-vive-en-Paris.wav,./stim/wavs/mexican_mismatch_declarative-narrow-focus_La-maestra-vive-en-Paris.wav,./stim/wavs/peruvian_mismatch_declarative-narrow-focus_La-maestra-vive-en-Paris.wav,./stim/wavs/puertorican_mismatch_declarative-narrow-focus_La-maestra-vive-en-Paris.wav
,,,,,,,581030,and,001,andaluz,Sí,2022-10-27_10h06.02.090,empathy_intonation_perc_sp_and,2022.2.4,Win32,60.88650755,IwAR3HFfi9DLyj6bgQCFxLc1ZlUAtOpsT3wrFrteSC3WQ6WHx7_8mlFDyCkKA,,,,,,,,,,0,0,1,2.6701,0,55,55,12,1,13,./stim/wavs/andalusian_match_declarative-narrow-focus_Manuela-vende-el-carro.wav,./stim/wavs/argentine_match_declarative-narrow-focus_Manuela-vende-el-carro.wav,./stim/wavs/castilian_match_declarative-narrow-focus_Manuela-vende-el-carro.wav,./stim/wavs/chilean_match_declarative-narrow-focus_Manuela-vende-el-carro.wav,./stim/wavs/cuban_match_declarative-narrow-focus_Manuela-vende-el-carro.wav,./stim/wavs/mexican_match_declarative-narrow-focus_Manuela-vende-el-carro.wav,./stim/wavs/peruvian_match_declarative-narrow-focus_Manuela-vende-el-carro.wav,./stim/wavs/puertorican_match_declarative-narrow-focus_Manuela-vende-el-carro.wav
,,,,,,,581030,and,001,andaluz,Sí,2022-10-27_10h06.02.090,empathy_intonation_perc_sp_and,2022.2.4,Win32,60.88650755,IwAR3HFfi9DLyj6bgQCFxLc1ZlUAtOpsT3wrFrteSC3WQ6WHx7_8mlFDyCkKA,,,,,,,,,,1,1,1,1.6437,0,56,56,16,1,17,./stim/wavs/andalusian_match_interrogative-partial-wh_Cuando-bebia-el-vino.wav,./stim/wavs/argentine_match_interrogative-partial-wh_Cuando-bebia-el-vino.wav,./stim/wavs/castilian_match_interrogative-partial-wh_Cuando-bebia-el-vino.wav,./stim/wavs/chilean_match_interrogative-partial-wh_Cuando-bebia-el-vino.wav,./stim/wavs/cuban_match_interrogative-partial-wh_Cuando-bebia-el-vino.wav,./stim/wavs/mexican_match_interrogative-partial-wh_Cuando-bebia-el-vino.wav,./stim/wavs/peruvian_match_interrogative-partial-wh_Cuando-bebia-el-vino.wav,./stim/wavs/puertorican_match_interrogative-partial-wh_Cuando-bebia-el-vino.wav
,,,,,,,581030,and,001,andaluz,Sí,2022-10-27_10h06.02.090,empathy_intonation_perc_sp_and,2022.2.4,Win32,60.88650755,IwAR3HFfi9DLyj6bgQCFxLc1ZlUAtOpsT3wrFrteSC3WQ6WHx7_8mlFDyCkKA,,,,,,,,,,0,0,1,2.786,0,57,57,6,1,7,./stim/wavs/andalusian_match_declarative-broad-focus_Mariano-habla-del-tiempo.wav,./stim/wavs/argentine_match_declarative-broad-focus_Mariano-habla-del-tiempo.wav,./stim/wavs/castilian_match_declarative-broad-focus_Mariano-habla-del-tiempo.wav,./stim/wavs/chilean_match_declarative-broad-focus_Mariano-habla-del-tiempo.wav,./stim/wavs/cuban_match_declarative-broad-focus_Mariano-habla-del-tiempo.wav,./stim/wavs/mexican_match_declarative-broad-focus_Mariano-habla-del-tiempo.wav,./stim/wavs/peruvian_match_declarative-broad-focus_Mariano-habla-del-tiempo.wav,./stim/wavs/puertorican_match_declarative-broad-focus_Mariano-habla-del-tiempo.wav
,,,,,,,581030,and,001,andaluz,Sí,2022-10-27_10h06.02.090,empathy_intonation_perc_sp_and,2022.2.4,Win32,60.88650755,IwAR3HFfi9DLyj6bgQCFxLc1ZlUAtOpsT3wrFrteSC3WQ6WHx7_8mlFDyCkKA,,,,,,,,,,1,1,1,1.5279,0,58,58,25,1,26,./stim/wavs/andalusian_match_interrogative-total-yn_Daniel-iba-a-Bolivia.wav,./stim/wavs/argentine_match_interrogative-total-yn_Daniel-iba-a-Bolivia.wav,./stim/wavs/castilian_match_interrogative-total-yn_Daniel-iba-a-Bolivia.wav,./stim/wavs/chilean_match_interrogative-total-yn_Daniel-iba-a-Bolivia.wav,./stim/wavs/cuban_match_interrogative-total-yn_Daniel-iba-a-Bolivia.wav,./stim/wavs/mexican_match_interrogative-total-yn_Daniel-iba-a-Bolivia.wav,./stim/wavs/peruvian_match_interrogative-total-yn_Daniel-iba-a-Bolivia.wav,./stim/wavs/puertorican_match_interrogative-total-yn_Daniel-iba-a-Bolivia.wav
,,,,,,,581030,and,001,andaluz,Sí,2022-10-27_10h06.02.090,empathy_intonation_perc_sp_and,2022.2.4,Win32,60.88650755,IwAR3HFfi9DLyj6bgQCFxLc1ZlUAtOpsT3wrFrteSC3WQ6WHx7_8mlFDyCkKA,,,,,,,,,,0,0,1,1.9214,0,59,59,35,1,36,./stim/wavs/andalusian_mismatch_declarative-broad-focus_La-maestra-vive-en-Paris.wav,./stim/wavs/argentine_mismatch_declarative-broad-focus_La-maestra-vive-en-Paris.wav,./stim/wavs/castilian_mismatch_declarative-broad-focus_La-maestra-vive-en-Paris.wav,./stim/wavs/chilean_mismatch_declarative-broad-focus_La-maestra-vive-en-Paris.wav,./stim/wavs/cuban_mismatch_declarative-broad-focus_La-maestra-vive-en-Paris.wav,./stim/wavs/mexican_mismatch_declarative-broad-focus_La-maestra-vive-en-Paris.wav,./stim/wavs/peruvian_mismatch_declarative-broad-focus_La-maestra-vive-en-Paris.wav,./stim/wavs/puertorican_mismatch_declarative-broad-focus_La-maestra-vive-en-Paris.wav
,,,,,,,581030,and,001,andaluz,Sí,2022-10-27_10h06.02.090,empathy_intonation_perc_sp_and,2022.2.4,Win32,60.88650755,IwAR3HFfi9DLyj6bgQCFxLc1ZlUAtOpsT3wrFrteSC3WQ6WHx7_8mlFDyCkKA,,,,,,,,,,0,0,1,1.9387,0,60,60,34,1,35,./stim/wavs/andalusian_mismatch_declarative-broad-focus_El-nino-oye-el-rio.wav,./stim/wavs/argentine_mismatch_declarative-broad-focus_El-nino-oye-el-rio.wav,./stim/wavs/castilian_mismatch_declarative-broad-focus_El-nino-oye-el-rio.wav,./stim/wavs/chilean_mismatch_declarative-broad-focus_El-nino-oye-el-rio.wav,./stim/wavs/cuban_mismatch_declarative-broad-focus_El-nino-oye-el-rio.wav,./stim/wavs/mexican_mismatch_declarative-broad-focus_El-nino-oye-el-rio.wav,./stim/wavs/peruvian_mismatch_declarative-broad-focus_El-nino-oye-el-rio.wav,./stim/wavs/puertorican_mismatch_declarative-broad-focus_El-nino-oye-el-rio.wav
,,,,,,,581030,and,001,andaluz,Sí,2022-10-27_10h06.02.090,empathy_intonation_perc_sp_and,2022.2.4,Win32,60.88650755,IwAR3HFfi9DLyj6bgQCFxLc1ZlUAtOpsT3wrFrteSC3WQ6WHx7_8mlFDyCkKA,,,,,,,,,,1,1,1,1.7398,0,61,61,18,1,19,./stim/wavs/andalusian_match_interrogative-partial-wh_Cuando-lleva-el-abrigo.wav,./stim/wavs/argentine_match_interrogative-partial-wh_Cuando-lleva-el-abrigo.wav,./stim/wavs/castilian_match_interrogative-partial-wh_Cuando-lleva-el-abrigo.wav,./stim/wavs/chilean_match_interrogative-partial-wh_Cuando-lleva-el-abrigo.wav,./stim/wavs/cuban_match_interrogative-partial-wh_Cuando-lleva-el-abrigo.wav,./stim/wavs/mexican_match_interrogative-partial-wh_Cuando-lleva-el-abrigo.wav,./stim/wavs/peruvian_match_interrogative-partial-wh_Cuando-lleva-el-abrigo.wav,./stim/wavs/puertorican_match_interrogative-partial-wh_Cuando-lleva-el-abrigo.wav
,,,,,,,581030,and,001,andaluz,Sí,2022-10-27_10h06.02.090,empathy_intonation_perc_sp_and,2022.2.4,Win32,60.88650755,IwAR3HFfi9DLyj6bgQCFxLc1ZlUAtOpsT3wrFrteSC3WQ6WHx7_8mlFDyCkKA,,,,,,,,,,0,0,1,1.7785,0,62,62,1,1,2,./stim/wavs/andalusian_match_declarative-broad-focus_Daniel-iba-a-Bolivia.wav,./stim/wavs/argentine_match_declarative-broad-focus_Daniel-iba-a-Bolivia.wav,./stim/wavs/castilian_match_declarative-broad-focus_Daniel-iba-a-Bolivia.wav,./stim/wavs/chilean_match_declarative-broad-focus_Daniel-iba-a-Bolivia.wav,./stim/wavs/cuban_match_declarative-broad-focus_Daniel-iba-a-Bolivia.wav,./stim/wavs/mexican_match_declarative-broad-focus_Daniel-iba-a-Bolivia.wav,./stim/wavs/peruvian_match_declarative-broad-focus_Daniel-iba-a-Bolivia.wav,./stim/wavs/puertorican_match_declarative-broad-focus_Daniel-iba-a-Bolivia.wav
,,,,,,,581030,and,001,andaluz,Sí,2022-10-27_10h06.02.090,empathy_intonation_perc_sp_and,2022.2.4,Win32,60.88650755,IwAR3HFfi9DLyj6bgQCFxLc1ZlUAtOpsT3wrFrteSC3WQ6WHx7_8mlFDyCkKA,,,,,,,,,,0,0,1,1.852,0,63,63,13,1,14,./stim/wavs/andalusian_match_declarative-narrow-focus_Maria-bebe-el-vino.wav,./stim/wavs/argentine_match_declarative-narrow-focus_Maria-bebe-el-vino.wav,./stim/wavs/castilian_match_declarative-narrow-focus_Maria-bebe-el-vino.wav,./stim/wavs/chilean_match_declarative-narrow-focus_Maria-bebe-el-vino.wav,./stim/wavs/cuban_match_declarative-narrow-focus_Maria-bebe-el-vino.wav,./stim/wavs/mexican_match_declarative-narrow-focus_Maria-bebe-el-vino.wav,./stim/wavs/peruvian_match_declarative-narrow-focus_Maria-bebe-el-vino.wav,./stim/wavs/puertorican_match_declarative-narrow-focus_Maria-bebe-el-vino.wav
