instructions_2afc_loop.thisRepN,instructions_2afc_loop.thisTrialN,instructions_2afc_loop.thisN,instructions_2afc_loop.thisIndex,instructions_2afc_loop.ran,instructions_text,continue_text,participant,study_id,session,Tu variedad del español*,¿Hablas con fluidez otra lengua (sí/no)?*,date,expName,psychopyVersion,OS,frameRate,fbclid,key_resp_2afc_practice.keys,key_resp_2afc_practice.corr,key_resp_2afc_practice.rt,trials_2afc_practice_loop.thisRepN,trials_2afc_practice_loop.thisTrialN,trials_2afc_practice_loop.thisN,trials_2afc_practice_loop.thisIndex,trials_2afc_practice_loop.ran,path,correct_response,key_resp_2afc_trial.keys,key_resp_2afc_trial.corr,key_resp_2afc_trial.rt,trials_2afc_loop.thisRepN,trials_2afc_loop.thisTrialN,trials_2afc_loop.thisN,trials_2afc_loop.thisIndex,trials_2afc_loop.ran,item_num,andalusian,argentine,castilian,chilean,cuban,mexican,peruvian,puertorican
0,0,0,0,1,"En la siguiente tarea vas a escuchar una serie de frases cortas. 

  Vas a decidir si suenan como preguntas o no usando el teclado.",(presiona la barra espaciadora para continuar),991384,and,001,andaluz,Sí,2022-11-03_15h51.03.654,empathy_intonation_perc_sp_and,2022.2.4,Win32,60.39012018,IwAR0J8hd292xOABFIwtOtOUexJiOs39cW0udJ56hUjlO-4chJVYIQ1JEB0ms,,,,,,,,,,,,,,,,,,,,,,,,,,,
0,1,1,1,1,"Si crees que el enunciado es una pregunta, teclea '1' (Sí) y si crees que 
  no es una pregunta teclea '0' (no).

  Vamos a practicar...",(presiona la barra espaciadora para continuar),991384,and,001,andaluz,Sí,2022-11-03_15h51.03.654,empathy_intonation_perc_sp_and,2022.2.4,Win32,60.39012018,IwAR0J8hd292xOABFIwtOtOUexJiOs39cW0udJ56hUjlO-4chJVYIQ1JEB0ms,,,,,,,,,,,,,,,,,,,,,,,,,,,
,,,,,,,991384,and,001,andaluz,Sí,2022-11-03_15h51.03.654,empathy_intonation_perc_sp_and,2022.2.4,Win32,60.39012018,IwAR0J8hd292xOABFIwtOtOUexJiOs39cW0udJ56hUjlO-4chJVYIQ1JEB0ms,0,0,5.6867,0,0,0,2,1,./stim/wavs/chilean_question_filler_Mi-padre-cantaba-bien.wav,1,,,,,,,,,,,,,,,,,
,,,,,,,991384,and,001,andaluz,Sí,2022-11-03_15h51.03.654,empathy_intonation_perc_sp_and,2022.2.4,Win32,60.39012018,IwAR0J8hd292xOABFIwtOtOUexJiOs39cW0udJ56hUjlO-4chJVYIQ1JEB0ms,0,1,3.5721,0,1,1,7,1,./stim/wavs/puertorican_statement_filler_La-nina-pinta-con-su-amiga.wav,0,,,,,,,,,,,,,,,,,
,,,,,,,991384,and,001,andaluz,Sí,2022-11-03_15h51.03.654,empathy_intonation_perc_sp_and,2022.2.4,Win32,60.39012018,IwAR0J8hd292xOABFIwtOtOUexJiOs39cW0udJ56hUjlO-4chJVYIQ1JEB0ms,1,1,2.2802,0,2,2,1,1,./stim/wavs/argentine_question_filler_Mi-vecino-habla-mucho.wav,1,,,,,,,,,,,,,,,,,
,,,,,,,991384,and,001,andaluz,Sí,2022-11-03_15h51.03.654,empathy_intonation_perc_sp_and,2022.2.4,Win32,60.39012018,IwAR0J8hd292xOABFIwtOtOUexJiOs39cW0udJ56hUjlO-4chJVYIQ1JEB0ms,0,1,2.3726,0,3,3,6,1,./stim/wavs/peruvian_statement_filler_El-nino-habla-con-su-madre.wav,0,,,,,,,,,,,,,,,,,
,,,,,,,991384,and,001,andaluz,Sí,2022-11-03_15h51.03.654,empathy_intonation_perc_sp_and,2022.2.4,Win32,60.39012018,IwAR0J8hd292xOABFIwtOtOUexJiOs39cW0udJ56hUjlO-4chJVYIQ1JEB0ms,1,1,3.0706,0,4,4,3,1,./stim/wavs/mexican_question_filler_Felipe-no-tiene-contrasena.wav,1,,,,,,,,,,,,,,,,,
,,,,,,,991384,and,001,andaluz,Sí,2022-11-03_15h51.03.654,empathy_intonation_perc_sp_and,2022.2.4,Win32,60.39012018,IwAR0J8hd292xOABFIwtOtOUexJiOs39cW0udJ56hUjlO-4chJVYIQ1JEB0ms,0,1,2.9166,0,5,5,4,1,./stim/wavs/cuban_statement_filler_Cocinabas-por-la-noche.wav,0,,,,,,,,,,,,,,,,,
,,,,,,,991384,and,001,andaluz,Sí,2022-11-03_15h51.03.654,empathy_intonation_perc_sp_and,2022.2.4,Win32,60.39012018,IwAR0J8hd292xOABFIwtOtOUexJiOs39cW0udJ56hUjlO-4chJVYIQ1JEB0ms,0,1,2.7799,0,6,6,5,1,./stim/wavs/andalusian_statement_filler_Alberto-nunca-se-afeita.wav,0,,,,,,,,,,,,,,,,,
,,,,,,,991384,and,001,andaluz,Sí,2022-11-03_15h51.03.654,empathy_intonation_perc_sp_and,2022.2.4,Win32,60.39012018,IwAR0J8hd292xOABFIwtOtOUexJiOs39cW0udJ56hUjlO-4chJVYIQ1JEB0ms,1,1,2.4324,0,7,7,0,1,./stim/wavs/castilian_question_filler_Mi-esposo-conoce-al-chico.wav,1,,,,,,,,,,,,,,,,,
,,,,,,,991384,and,001,andaluz,Sí,2022-11-03_15h51.03.654,empathy_intonation_perc_sp_and,2022.2.4,Win32,60.39012018,IwAR0J8hd292xOABFIwtOtOUexJiOs39cW0udJ56hUjlO-4chJVYIQ1JEB0ms,,,,,,,,,,,,,,,,,,,,,,,,,,,
,,,,,,,991384,and,001,andaluz,Sí,2022-11-03_15h51.03.654,empathy_intonation_perc_sp_and,2022.2.4,Win32,60.39012018,IwAR0J8hd292xOABFIwtOtOUexJiOs39cW0udJ56hUjlO-4chJVYIQ1JEB0ms,,,,,,,,,,1,1,1,2.3028,0,0,0,63,1,64,./stim/wavs/andalusian_mismatch_interrogative-total-yn_Mi-tia-odia-la-lluvia.wav,./stim/wavs/argentine_mismatch_interrogative-total-yn_Mi-tia-odia-la-lluvia.wav,./stim/wavs/castilian_mismatch_interrogative-total-yn_Mi-tia-odia-la-lluvia.wav,./stim/wavs/chilean_mismatch_interrogative-total-yn_Mi-tia-odia-la-lluvia.wav,./stim/wavs/cuban_mismatch_interrogative-total-yn_Mi-tia-odia-la-lluvia.wav,./stim/wavs/mexican_mismatch_interrogative-total-yn_Mi-tia-odia-la-lluvia.wav,./stim/wavs/peruvian_mismatch_interrogative-total-yn_Mi-tia-odia-la-lluvia.wav,./stim/wavs/puertorican_mismatch_interrogative-total-yn_Mi-tia-odia-la-lluvia.wav
,,,,,,,991384,and,001,andaluz,Sí,2022-11-03_15h51.03.654,empathy_intonation_perc_sp_and,2022.2.4,Win32,60.39012018,IwAR0J8hd292xOABFIwtOtOUexJiOs39cW0udJ56hUjlO-4chJVYIQ1JEB0ms,,,,,,,,,,0,0,1,3.01,0,1,1,45,1,46,./stim/wavs/andalusian_mismatch_declarative-narrow-focus_Mi-madre-come-la-fruta.wav,./stim/wavs/argentine_mismatch_declarative-narrow-focus_Mi-madre-come-la-fruta.wav,./stim/wavs/castilian_mismatch_declarative-narrow-focus_Mi-madre-come-la-fruta.wav,./stim/wavs/chilean_mismatch_declarative-narrow-focus_Mi-madre-come-la-fruta.wav,./stim/wavs/cuban_mismatch_declarative-narrow-focus_Mi-madre-come-la-fruta.wav,./stim/wavs/mexican_mismatch_declarative-narrow-focus_Mi-madre-come-la-fruta.wav,./stim/wavs/peruvian_mismatch_declarative-narrow-focus_Mi-madre-come-la-fruta.wav,./stim/wavs/puertorican_mismatch_declarative-narrow-focus_Mi-madre-come-la-fruta.wav
,,,,,,,991384,and,001,andaluz,Sí,2022-11-03_15h51.03.654,empathy_intonation_perc_sp_and,2022.2.4,Win32,60.39012018,IwAR0J8hd292xOABFIwtOtOUexJiOs39cW0udJ56hUjlO-4chJVYIQ1JEB0ms,,,,,,,,,,0,0,1,2.0737,0,2,2,33,1,34,./stim/wavs/andalusian_mismatch_declarative-broad-focus_El-hombre-mira-la-luna.wav,./stim/wavs/argentine_mismatch_declarative-broad-focus_El-hombre-mira-la-luna.wav,./stim/wavs/castilian_mismatch_declarative-broad-focus_El-hombre-mira-la-luna.wav,./stim/wavs/chilean_mismatch_declarative-broad-focus_El-hombre-mira-la-luna.wav,./stim/wavs/cuban_mismatch_declarative-broad-focus_El-hombre-mira-la-luna.wav,./stim/wavs/mexican_mismatch_declarative-broad-focus_El-hombre-mira-la-luna.wav,./stim/wavs/peruvian_mismatch_declarative-broad-focus_El-hombre-mira-la-luna.wav,./stim/wavs/puertorican_mismatch_declarative-broad-focus_El-hombre-mira-la-luna.wav
,,,,,,,991384,and,001,andaluz,Sí,2022-11-03_15h51.03.654,empathy_intonation_perc_sp_and,2022.2.4,Win32,60.39012018,IwAR0J8hd292xOABFIwtOtOUexJiOs39cW0udJ56hUjlO-4chJVYIQ1JEB0ms,,,,,,,,,,1,1,1,2.0398,0,3,3,54,1,55,./stim/wavs/andalusian_mismatch_interrogative-partial-wh_Por-que-venia-del-lago.wav,./stim/wavs/argentine_mismatch_interrogative-partial-wh_Por-que-venia-del-lago.wav,./stim/wavs/castilian_mismatch_interrogative-partial-wh_Por-que-venia-del-lago.wav,./stim/wavs/chilean_mismatch_interrogative-partial-wh_Por-que-venia-del-lago.wav,./stim/wavs/cuban_mismatch_interrogative-partial-wh_Por-que-venia-del-lago.wav,./stim/wavs/mexican_mismatch_interrogative-partial-wh_Por-que-venia-del-lago.wav,./stim/wavs/peruvian_mismatch_interrogative-partial-wh_Por-que-venia-del-lago.wav,./stim/wavs/puertorican_mismatch_interrogative-partial-wh_Por-que-venia-del-lago.wav
,,,,,,,991384,and,001,andaluz,Sí,2022-11-03_15h51.03.654,empathy_intonation_perc_sp_and,2022.2.4,Win32,60.39012018,IwAR0J8hd292xOABFIwtOtOUexJiOs39cW0udJ56hUjlO-4chJVYIQ1JEB0ms,,,,,,,,,,0,0,1,2.1661,0,4,4,44,1,45,./stim/wavs/andalusian_mismatch_declarative-narrow-focus_La-nina-lava-el-plato.wav,./stim/wavs/argentine_mismatch_declarative-narrow-focus_La-nina-lava-el-plato.wav,./stim/wavs/castilian_mismatch_declarative-narrow-focus_La-nina-lava-el-plato.wav,./stim/wavs/chilean_mismatch_declarative-narrow-focus_La-nina-lava-el-plato.wav,./stim/wavs/cuban_mismatch_declarative-narrow-focus_La-nina-lava-el-plato.wav,./stim/wavs/mexican_mismatch_declarative-narrow-focus_La-nina-lava-el-plato.wav,./stim/wavs/peruvian_mismatch_declarative-narrow-focus_La-nina-lava-el-plato.wav,./stim/wavs/puertorican_mismatch_declarative-narrow-focus_La-nina-lava-el-plato.wav
,,,,,,,991384,and,001,andaluz,Sí,2022-11-03_15h51.03.654,empathy_intonation_perc_sp_and,2022.2.4,Win32,60.39012018,IwAR0J8hd292xOABFIwtOtOUexJiOs39cW0udJ56hUjlO-4chJVYIQ1JEB0ms,,,,,,,,,,0,0,1,2.254,0,5,5,9,1,10,./stim/wavs/andalusian_match_declarative-narrow-focus_Daniel-iba-a-Bolivia.wav,./stim/wavs/argentine_match_declarative-narrow-focus_Daniel-iba-a-Bolivia.wav,./stim/wavs/castilian_match_declarative-narrow-focus_Daniel-iba-a-Bolivia.wav,./stim/wavs/chilean_match_declarative-narrow-focus_Daniel-iba-a-Bolivia.wav,./stim/wavs/cuban_match_declarative-narrow-focus_Daniel-iba-a-Bolivia.wav,./stim/wavs/mexican_match_declarative-narrow-focus_Daniel-iba-a-Bolivia.wav,./stim/wavs/peruvian_match_declarative-narrow-focus_Daniel-iba-a-Bolivia.wav,./stim/wavs/puertorican_match_declarative-narrow-focus_Daniel-iba-a-Bolivia.wav
,,,,,,,991384,and,001,andaluz,Sí,2022-11-03_15h51.03.654,empathy_intonation_perc_sp_and,2022.2.4,Win32,60.39012018,IwAR0J8hd292xOABFIwtOtOUexJiOs39cW0udJ56hUjlO-4chJVYIQ1JEB0ms,,,,,,,,,,0,0,1,2.1666,0,6,6,37,1,38,./stim/wavs/andalusian_mismatch_declarative-broad-focus_Mi-madre-come-la-fruta.wav,./stim/wavs/argentine_mismatch_declarative-broad-focus_Mi-madre-come-la-fruta.wav,./stim/wavs/castilian_mismatch_declarative-broad-focus_Mi-madre-come-la-fruta.wav,./stim/wavs/chilean_mismatch_declarative-broad-focus_Mi-madre-come-la-fruta.wav,./stim/wavs/cuban_mismatch_declarative-broad-focus_Mi-madre-come-la-fruta.wav,./stim/wavs/mexican_mismatch_declarative-broad-focus_Mi-madre-come-la-fruta.wav,./stim/wavs/peruvian_mismatch_declarative-broad-focus_Mi-madre-come-la-fruta.wav,./stim/wavs/puertorican_mismatch_declarative-broad-focus_Mi-madre-come-la-fruta.wav
,,,,,,,991384,and,001,andaluz,Sí,2022-11-03_15h51.03.654,empathy_intonation_perc_sp_and,2022.2.4,Win32,60.39012018,IwAR0J8hd292xOABFIwtOtOUexJiOs39cW0udJ56hUjlO-4chJVYIQ1JEB0ms,,,,,,,,,,0,0,1,1.9,0,7,7,43,1,44,./stim/wavs/andalusian_mismatch_declarative-narrow-focus_La-maestra-vive-en-Paris.wav,./stim/wavs/argentine_mismatch_declarative-narrow-focus_La-maestra-vive-en-Paris.wav,./stim/wavs/castilian_mismatch_declarative-narrow-focus_La-maestra-vive-en-Paris.wav,./stim/wavs/chilean_mismatch_declarative-narrow-focus_La-maestra-vive-en-Paris.wav,./stim/wavs/cuban_mismatch_declarative-narrow-focus_La-maestra-vive-en-Paris.wav,./stim/wavs/mexican_mismatch_declarative-narrow-focus_La-maestra-vive-en-Paris.wav,./stim/wavs/peruvian_mismatch_declarative-narrow-focus_La-maestra-vive-en-Paris.wav,./stim/wavs/puertorican_mismatch_declarative-narrow-focus_La-maestra-vive-en-Paris.wav
,,,,,,,991384,and,001,andaluz,Sí,2022-11-03_15h51.03.654,empathy_intonation_perc_sp_and,2022.2.4,Win32,60.39012018,IwAR0J8hd292xOABFIwtOtOUexJiOs39cW0udJ56hUjlO-4chJVYIQ1JEB0ms,,,,,,,,,,0,0,1,1.9468,0,8,8,3,1,4,./stim/wavs/andalusian_match_declarative-broad-focus_Emilio-ama-la-marcha.wav,./stim/wavs/argentine_match_declarative-broad-focus_Emilio-ama-la-marcha.wav,./stim/wavs/castilian_match_declarative-broad-focus_Emilio-ama-la-marcha.wav,./stim/wavs/chilean_match_declarative-broad-focus_Emilio-ama-la-marcha.wav,./stim/wavs/cuban_match_declarative-broad-focus_Emilio-ama-la-marcha.wav,./stim/wavs/mexican_match_declarative-broad-focus_Emilio-ama-la-marcha.wav,./stim/wavs/peruvian_match_declarative-broad-focus_Emilio-ama-la-marcha.wav,./stim/wavs/puertorican_match_declarative-broad-focus_Emilio-ama-la-marcha.wav
,,,,,,,991384,and,001,andaluz,Sí,2022-11-03_15h51.03.654,empathy_intonation_perc_sp_and,2022.2.4,Win32,60.39012018,IwAR0J8hd292xOABFIwtOtOUexJiOs39cW0udJ56hUjlO-4chJVYIQ1JEB0ms,,,,,,,,,,1,1,1,1.7351,0,9,9,30,1,31,./stim/wavs/andalusian_match_interrogative-total-yn_Mariano-habla-del-tiempo.wav,./stim/wavs/argentine_match_interrogative-total-yn_Mariano-habla-del-tiempo.wav,./stim/wavs/castilian_match_interrogative-total-yn_Mariano-habla-del-tiempo.wav,./stim/wavs/chilean_match_interrogative-total-yn_Mariano-habla-del-tiempo.wav,./stim/wavs/cuban_match_interrogative-total-yn_Mariano-habla-del-tiempo.wav,./stim/wavs/mexican_match_interrogative-total-yn_Mariano-habla-del-tiempo.wav,./stim/wavs/peruvian_match_interrogative-total-yn_Mariano-habla-del-tiempo.wav,./stim/wavs/puertorican_match_interrogative-total-yn_Mariano-habla-del-tiempo.wav
,,,,,,,991384,and,001,andaluz,Sí,2022-11-03_15h51.03.654,empathy_intonation_perc_sp_and,2022.2.4,Win32,60.39012018,IwAR0J8hd292xOABFIwtOtOUexJiOs39cW0udJ56hUjlO-4chJVYIQ1JEB0ms,,,,,,,,,,0,0,1,1.3697,0,10,10,5,1,6,./stim/wavs/andalusian_match_declarative-broad-focus_Maria-bebe-el-vino.wav,./stim/wavs/argentine_match_declarative-broad-focus_Maria-bebe-el-vino.wav,./stim/wavs/castilian_match_declarative-broad-focus_Maria-bebe-el-vino.wav,./stim/wavs/chilean_match_declarative-broad-focus_Maria-bebe-el-vino.wav,./stim/wavs/cuban_match_declarative-broad-focus_Maria-bebe-el-vino.wav,./stim/wavs/mexican_match_declarative-broad-focus_Maria-bebe-el-vino.wav,./stim/wavs/peruvian_match_declarative-broad-focus_Maria-bebe-el-vino.wav,./stim/wavs/puertorican_match_declarative-broad-focus_Maria-bebe-el-vino.wav
,,,,,,,991384,and,001,andaluz,Sí,2022-11-03_15h51.03.654,empathy_intonation_perc_sp_and,2022.2.4,Win32,60.39012018,IwAR0J8hd292xOABFIwtOtOUexJiOs39cW0udJ56hUjlO-4chJVYIQ1JEB0ms,,,,,,,,,,0,0,1,1.8065,0,11,11,42,1,43,./stim/wavs/andalusian_mismatch_declarative-narrow-focus_El-nino-oye-el-rio.wav,./stim/wavs/argentine_mismatch_declarative-narrow-focus_El-nino-oye-el-rio.wav,./stim/wavs/castilian_mismatch_declarative-narrow-focus_El-nino-oye-el-rio.wav,./stim/wavs/chilean_mismatch_declarative-narrow-focus_El-nino-oye-el-rio.wav,./stim/wavs/cuban_mismatch_declarative-narrow-focus_El-nino-oye-el-rio.wav,./stim/wavs/mexican_mismatch_declarative-narrow-focus_El-nino-oye-el-rio.wav,./stim/wavs/peruvian_mismatch_declarative-narrow-focus_El-nino-oye-el-rio.wav,./stim/wavs/puertorican_mismatch_declarative-narrow-focus_El-nino-oye-el-rio.wav
,,,,,,,991384,and,001,andaluz,Sí,2022-11-03_15h51.03.654,empathy_intonation_perc_sp_and,2022.2.4,Win32,60.39012018,IwAR0J8hd292xOABFIwtOtOUexJiOs39cW0udJ56hUjlO-4chJVYIQ1JEB0ms,,,,,,,,,,0,0,1,1.7051,0,12,12,47,1,48,./stim/wavs/andalusian_mismatch_declarative-narrow-focus_Mi-tia-odia-la-lluvia.wav,./stim/wavs/argentine_mismatch_declarative-narrow-focus_Mi-tia-odia-la-lluvia.wav,./stim/wavs/castilian_mismatch_declarative-narrow-focus_Mi-tia-odia-la-lluvia.wav,./stim/wavs/chilean_mismatch_declarative-narrow-focus_Mi-tia-odia-la-lluvia.wav,./stim/wavs/cuban_mismatch_declarative-narrow-focus_Mi-tia-odia-la-lluvia.wav,./stim/wavs/mexican_mismatch_declarative-narrow-focus_Mi-tia-odia-la-lluvia.wav,./stim/wavs/peruvian_mismatch_declarative-narrow-focus_Mi-tia-odia-la-lluvia.wav,./stim/wavs/puertorican_mismatch_declarative-narrow-focus_Mi-tia-odia-la-lluvia.wav
,,,,,,,991384,and,001,andaluz,Sí,2022-11-03_15h51.03.654,empathy_intonation_perc_sp_and,2022.2.4,Win32,60.39012018,IwAR0J8hd292xOABFIwtOtOUexJiOs39cW0udJ56hUjlO-4chJVYIQ1JEB0ms,,,,,,,,,,1,1,1,1.4687,0,13,13,31,1,32,./stim/wavs/andalusian_match_interrogative-total-yn_Marta-abre-el-regalo.wav,./stim/wavs/argentine_match_interrogative-total-yn_Marta-abre-el-regalo.wav,./stim/wavs/castilian_match_interrogative-total-yn_Marta-abre-el-regalo.wav,./stim/wavs/chilean_match_interrogative-total-yn_Marta-abre-el-regalo.wav,./stim/wavs/cuban_match_interrogative-total-yn_Marta-abre-el-regalo.wav,./stim/wavs/mexican_match_interrogative-total-yn_Marta-abre-el-regalo.wav,./stim/wavs/peruvian_match_interrogative-total-yn_Marta-abre-el-regalo.wav,./stim/wavs/puertorican_match_interrogative-total-yn_Marta-abre-el-regalo.wav
,,,,,,,991384,and,001,andaluz,Sí,2022-11-03_15h51.03.654,empathy_intonation_perc_sp_and,2022.2.4,Win32,60.39012018,IwAR0J8hd292xOABFIwtOtOUexJiOs39cW0udJ56hUjlO-4chJVYIQ1JEB0ms,,,,,,,,,,1,1,1,1.262,0,14,14,26,1,27,./stim/wavs/andalusian_match_interrogative-total-yn_David-leia-el-libro.wav,./stim/wavs/argentine_match_interrogative-total-yn_David-leia-el-libro.wav,./stim/wavs/castilian_match_interrogative-total-yn_David-leia-el-libro.wav,./stim/wavs/chilean_match_interrogative-total-yn_David-leia-el-libro.wav,./stim/wavs/cuban_match_interrogative-total-yn_David-leia-el-libro.wav,./stim/wavs/mexican_match_interrogative-total-yn_David-leia-el-libro.wav,./stim/wavs/peruvian_match_interrogative-total-yn_David-leia-el-libro.wav,./stim/wavs/puertorican_match_interrogative-total-yn_David-leia-el-libro.wav
,,,,,,,991384,and,001,andaluz,Sí,2022-11-03_15h51.03.654,empathy_intonation_perc_sp_and,2022.2.4,Win32,60.39012018,IwAR0J8hd292xOABFIwtOtOUexJiOs39cW0udJ56hUjlO-4chJVYIQ1JEB0ms,,,,,,,,,,1,1,1,1.263,0,15,15,29,1,30,./stim/wavs/andalusian_match_interrogative-total-yn_Maria-bebe-el-vino.wav,./stim/wavs/argentine_match_interrogative-total-yn_Maria-bebe-el-vino.wav,./stim/wavs/castilian_match_interrogative-total-yn_Maria-bebe-el-vino.wav,./stim/wavs/chilean_match_interrogative-total-yn_Maria-bebe-el-vino.wav,./stim/wavs/cuban_match_interrogative-total-yn_Maria-bebe-el-vino.wav,./stim/wavs/mexican_match_interrogative-total-yn_Maria-bebe-el-vino.wav,./stim/wavs/peruvian_match_interrogative-total-yn_Maria-bebe-el-vino.wav,./stim/wavs/puertorican_match_interrogative-total-yn_Maria-bebe-el-vino.wav
,,,,,,,991384,and,001,andaluz,Sí,2022-11-03_15h51.03.654,empathy_intonation_perc_sp_and,2022.2.4,Win32,60.39012018,IwAR0J8hd292xOABFIwtOtOUexJiOs39cW0udJ56hUjlO-4chJVYIQ1JEB0ms,,,,,,,,,,1,1,1,1.454,0,16,16,52,1,53,./stim/wavs/andalusian_mismatch_interrogative-partial-wh_Por-que-odiaba-la-lluvia.wav,./stim/wavs/argentine_mismatch_interrogative-partial-wh_Por-que-odiaba-la-lluvia.wav,./stim/wavs/castilian_mismatch_interrogative-partial-wh_Por-que-odiaba-la-lluvia.wav,./stim/wavs/chilean_mismatch_interrogative-partial-wh_Por-que-odiaba-la-lluvia.wav,./stim/wavs/cuban_mismatch_interrogative-partial-wh_Por-que-odiaba-la-lluvia.wav,./stim/wavs/mexican_mismatch_interrogative-partial-wh_Por-que-odiaba-la-lluvia.wav,./stim/wavs/peruvian_mismatch_interrogative-partial-wh_Por-que-odiaba-la-lluvia.wav,./stim/wavs/puertorican_mismatch_interrogative-partial-wh_Por-que-odiaba-la-lluvia.wav
,,,,,,,991384,and,001,andaluz,Sí,2022-11-03_15h51.03.654,empathy_intonation_perc_sp_and,2022.2.4,Win32,60.39012018,IwAR0J8hd292xOABFIwtOtOUexJiOs39cW0udJ56hUjlO-4chJVYIQ1JEB0ms,,,,,,,,,,0,0,1,1.4886,0,17,17,0,1,1,./stim/wavs/andalusian_match_declarative-broad-focus_Ana-lleva-el-abrigo.wav,./stim/wavs/argentine_match_declarative-broad-focus_Ana-lleva-el-abrigo.wav,./stim/wavs/castilian_match_declarative-broad-focus_Ana-lleva-el-abrigo.wav,./stim/wavs/chilean_match_declarative-broad-focus_Ana-lleva-el-abrigo.wav,./stim/wavs/cuban_match_declarative-broad-focus_Ana-lleva-el-abrigo.wav,./stim/wavs/mexican_match_declarative-broad-focus_Ana-lleva-el-abrigo.wav,./stim/wavs/peruvian_match_declarative-broad-focus_Ana-lleva-el-abrigo.wav,./stim/wavs/puertorican_match_declarative-broad-focus_Ana-lleva-el-abrigo.wav
,,,,,,,991384,and,001,andaluz,Sí,2022-11-03_15h51.03.654,empathy_intonation_perc_sp_and,2022.2.4,Win32,60.39012018,IwAR0J8hd292xOABFIwtOtOUexJiOs39cW0udJ56hUjlO-4chJVYIQ1JEB0ms,,,,,,,,,,0,0,1,1.8412,0,18,18,32,1,33,./stim/wavs/andalusian_mismatch_declarative-broad-focus_El-bebe-comia-muy-bien.wav,./stim/wavs/argentine_mismatch_declarative-broad-focus_El-bebe-comia-muy-bien.wav,./stim/wavs/castilian_mismatch_declarative-broad-focus_El-bebe-comia-muy-bien.wav,./stim/wavs/chilean_mismatch_declarative-broad-focus_El-bebe-comia-muy-bien.wav,./stim/wavs/cuban_mismatch_declarative-broad-focus_El-bebe-comia-muy-bien.wav,./stim/wavs/mexican_mismatch_declarative-broad-focus_El-bebe-comia-muy-bien.wav,./stim/wavs/peruvian_mismatch_declarative-broad-focus_El-bebe-comia-muy-bien.wav,./stim/wavs/puertorican_mismatch_declarative-broad-focus_El-bebe-comia-muy-bien.wav
,,,,,,,991384,and,001,andaluz,Sí,2022-11-03_15h51.03.654,empathy_intonation_perc_sp_and,2022.2.4,Win32,60.39012018,IwAR0J8hd292xOABFIwtOtOUexJiOs39cW0udJ56hUjlO-4chJVYIQ1JEB0ms,,,,,,,,,,0,0,1,1.54,0,19,19,10,1,11,./stim/wavs/andalusian_match_declarative-narrow-focus_David-leia-el-libro.wav,./stim/wavs/argentine_match_declarative-narrow-focus_David-leia-el-libro.wav,./stim/wavs/castilian_match_declarative-narrow-focus_David-leia-el-libro.wav,./stim/wavs/chilean_match_declarative-narrow-focus_David-leia-el-libro.wav,./stim/wavs/cuban_match_declarative-narrow-focus_David-leia-el-libro.wav,./stim/wavs/mexican_match_declarative-narrow-focus_David-leia-el-libro.wav,./stim/wavs/peruvian_match_declarative-narrow-focus_David-leia-el-libro.wav,./stim/wavs/puertorican_match_declarative-narrow-focus_David-leia-el-libro.wav
,,,,,,,991384,and,001,andaluz,Sí,2022-11-03_15h51.03.654,empathy_intonation_perc_sp_and,2022.2.4,Win32,60.39012018,IwAR0J8hd292xOABFIwtOtOUexJiOs39cW0udJ56hUjlO-4chJVYIQ1JEB0ms,,,,,,,,,,1,1,1,1.5069,0,20,20,55,1,56,./stim/wavs/andalusian_mismatch_interrogative-partial-wh_Por-que-vivia-en-Paris.wav,./stim/wavs/argentine_mismatch_interrogative-partial-wh_Por-que-vivia-en-Paris.wav,./stim/wavs/castilian_mismatch_interrogative-partial-wh_Por-que-vivia-en-Paris.wav,./stim/wavs/chilean_mismatch_interrogative-partial-wh_Por-que-vivia-en-Paris.wav,./stim/wavs/cuban_mismatch_interrogative-partial-wh_Por-que-vivia-en-Paris.wav,./stim/wavs/mexican_mismatch_interrogative-partial-wh_Por-que-vivia-en-Paris.wav,./stim/wavs/peruvian_mismatch_interrogative-partial-wh_Por-que-vivia-en-Paris.wav,./stim/wavs/puertorican_mismatch_interrogative-partial-wh_Por-que-vivia-en-Paris.wav
,,,,,,,991384,and,001,andaluz,Sí,2022-11-03_15h51.03.654,empathy_intonation_perc_sp_and,2022.2.4,Win32,60.39012018,IwAR0J8hd292xOABFIwtOtOUexJiOs39cW0udJ56hUjlO-4chJVYIQ1JEB0ms,,,,,,,,,,1,1,1,1.5373,0,21,21,50,1,51,./stim/wavs/andalusian_mismatch_interrogative-partial-wh_Cuando-miraba-la-luna.wav,./stim/wavs/argentine_mismatch_interrogative-partial-wh_Cuando-miraba-la-luna.wav,./stim/wavs/castilian_mismatch_interrogative-partial-wh_Cuando-miraba-la-luna.wav,./stim/wavs/chilean_mismatch_interrogative-partial-wh_Cuando-miraba-la-luna.wav,./stim/wavs/cuban_mismatch_interrogative-partial-wh_Cuando-miraba-la-luna.wav,./stim/wavs/mexican_mismatch_interrogative-partial-wh_Cuando-miraba-la-luna.wav,./stim/wavs/peruvian_mismatch_interrogative-partial-wh_Cuando-miraba-la-luna.wav,./stim/wavs/puertorican_mismatch_interrogative-partial-wh_Cuando-miraba-la-luna.wav
,,,,,,,991384,and,001,andaluz,Sí,2022-11-03_15h51.03.654,empathy_intonation_perc_sp_and,2022.2.4,Win32,60.39012018,IwAR0J8hd292xOABFIwtOtOUexJiOs39cW0udJ56hUjlO-4chJVYIQ1JEB0ms,,,,,,,,,,1,1,1,1.4569,0,22,22,25,1,26,./stim/wavs/andalusian_match_interrogative-total-yn_Daniel-iba-a-Bolivia.wav,./stim/wavs/argentine_match_interrogative-total-yn_Daniel-iba-a-Bolivia.wav,./stim/wavs/castilian_match_interrogative-total-yn_Daniel-iba-a-Bolivia.wav,./stim/wavs/chilean_match_interrogative-total-yn_Daniel-iba-a-Bolivia.wav,./stim/wavs/cuban_match_interrogative-total-yn_Daniel-iba-a-Bolivia.wav,./stim/wavs/mexican_match_interrogative-total-yn_Daniel-iba-a-Bolivia.wav,./stim/wavs/peruvian_match_interrogative-total-yn_Daniel-iba-a-Bolivia.wav,./stim/wavs/puertorican_match_interrogative-total-yn_Daniel-iba-a-Bolivia.wav
,,,,,,,991384,and,001,andaluz,Sí,2022-11-03_15h51.03.654,empathy_intonation_perc_sp_and,2022.2.4,Win32,60.39012018,IwAR0J8hd292xOABFIwtOtOUexJiOs39cW0udJ56hUjlO-4chJVYIQ1JEB0ms,,,,,,,,,,1,1,1,1.4675,0,23,23,28,1,29,./stim/wavs/andalusian_match_interrogative-total-yn_Manuela-vende-el-carro.wav,./stim/wavs/argentine_match_interrogative-total-yn_Manuela-vende-el-carro.wav,./stim/wavs/castilian_match_interrogative-total-yn_Manuela-vende-el-carro.wav,./stim/wavs/chilean_match_interrogative-total-yn_Manuela-vende-el-carro.wav,./stim/wavs/cuban_match_interrogative-total-yn_Manuela-vende-el-carro.wav,./stim/wavs/mexican_match_interrogative-total-yn_Manuela-vende-el-carro.wav,./stim/wavs/peruvian_match_interrogative-total-yn_Manuela-vende-el-carro.wav,./stim/wavs/puertorican_match_interrogative-total-yn_Manuela-vende-el-carro.wav
,,,,,,,991384,and,001,andaluz,Sí,2022-11-03_15h51.03.654,empathy_intonation_perc_sp_and,2022.2.4,Win32,60.39012018,IwAR0J8hd292xOABFIwtOtOUexJiOs39cW0udJ56hUjlO-4chJVYIQ1JEB0ms,,,,,,,,,,1,1,1,1.3369,0,24,24,23,1,24,./stim/wavs/andalusian_match_interrogative-partial-wh_Por-que-iba-a-Bolivia.wav,./stim/wavs/argentine_match_interrogative-partial-wh_Por-que-iba-a-Bolivia.wav,./stim/wavs/castilian_match_interrogative-partial-wh_Por-que-iba-a-Bolivia.wav,./stim/wavs/chilean_match_interrogative-partial-wh_Por-que-iba-a-Bolivia.wav,./stim/wavs/cuban_match_interrogative-partial-wh_Por-que-iba-a-Bolivia.wav,./stim/wavs/mexican_match_interrogative-partial-wh_Por-que-iba-a-Bolivia.wav,./stim/wavs/peruvian_match_interrogative-partial-wh_Por-que-iba-a-Bolivia.wav,./stim/wavs/puertorican_match_interrogative-partial-wh_Por-que-iba-a-Bolivia.wav
,,,,,,,991384,and,001,andaluz,Sí,2022-11-03_15h51.03.654,empathy_intonation_perc_sp_and,2022.2.4,Win32,60.39012018,IwAR0J8hd292xOABFIwtOtOUexJiOs39cW0udJ56hUjlO-4chJVYIQ1JEB0ms,,,,,,,,,,0,0,1,1.559,0,25,25,2,1,3,./stim/wavs/andalusian_match_declarative-broad-focus_David-leia-el-libro.wav,./stim/wavs/argentine_match_declarative-broad-focus_David-leia-el-libro.wav,./stim/wavs/castilian_match_declarative-broad-focus_David-leia-el-libro.wav,./stim/wavs/chilean_match_declarative-broad-focus_David-leia-el-libro.wav,./stim/wavs/cuban_match_declarative-broad-focus_David-leia-el-libro.wav,./stim/wavs/mexican_match_declarative-broad-focus_David-leia-el-libro.wav,./stim/wavs/peruvian_match_declarative-broad-focus_David-leia-el-libro.wav,./stim/wavs/puertorican_match_declarative-broad-focus_David-leia-el-libro.wav
,,,,,,,991384,and,001,andaluz,Sí,2022-11-03_15h51.03.654,empathy_intonation_perc_sp_and,2022.2.4,Win32,60.39012018,IwAR0J8hd292xOABFIwtOtOUexJiOs39cW0udJ56hUjlO-4chJVYIQ1JEB0ms,,,,,,,,,,0,0,1,1.601,0,26,26,8,1,9,./stim/wavs/andalusian_match_declarative-narrow-focus_Ana-lleva-el-abrigo.wav,./stim/wavs/argentine_match_declarative-narrow-focus_Ana-lleva-el-abrigo.wav,./stim/wavs/castilian_match_declarative-narrow-focus_Ana-lleva-el-abrigo.wav,./stim/wavs/chilean_match_declarative-narrow-focus_Ana-lleva-el-abrigo.wav,./stim/wavs/cuban_match_declarative-narrow-focus_Ana-lleva-el-abrigo.wav,./stim/wavs/mexican_match_declarative-narrow-focus_Ana-lleva-el-abrigo.wav,./stim/wavs/peruvian_match_declarative-narrow-focus_Ana-lleva-el-abrigo.wav,./stim/wavs/puertorican_match_declarative-narrow-focus_Ana-lleva-el-abrigo.wav
,,,,,,,991384,and,001,andaluz,Sí,2022-11-03_15h51.03.654,empathy_intonation_perc_sp_and,2022.2.4,Win32,60.39012018,IwAR0J8hd292xOABFIwtOtOUexJiOs39cW0udJ56hUjlO-4chJVYIQ1JEB0ms,,,,,,,,,,1,1,1,1.7731,0,27,27,48,1,49,./stim/wavs/andalusian_mismatch_interrogative-partial-wh_Cuando-comia-la-fruta.wav,./stim/wavs/argentine_mismatch_interrogative-partial-wh_Cuando-comia-la-fruta.wav,./stim/wavs/castilian_mismatch_interrogative-partial-wh_Cuando-comia-la-fruta.wav,./stim/wavs/chilean_mismatch_interrogative-partial-wh_Cuando-comia-la-fruta.wav,./stim/wavs/cuban_mismatch_interrogative-partial-wh_Cuando-comia-la-fruta.wav,./stim/wavs/mexican_mismatch_interrogative-partial-wh_Cuando-comia-la-fruta.wav,./stim/wavs/peruvian_mismatch_interrogative-partial-wh_Cuando-comia-la-fruta.wav,./stim/wavs/puertorican_mismatch_interrogative-partial-wh_Cuando-comia-la-fruta.wav
,,,,,,,991384,and,001,andaluz,Sí,2022-11-03_15h51.03.654,empathy_intonation_perc_sp_and,2022.2.4,Win32,60.39012018,IwAR0J8hd292xOABFIwtOtOUexJiOs39cW0udJ56hUjlO-4chJVYIQ1JEB0ms,,,,,,,,,,1,1,1,1.5684,0,28,28,62,1,63,./stim/wavs/andalusian_mismatch_interrogative-total-yn_Mi-novio-viene-del-lago.wav,./stim/wavs/argentine_mismatch_interrogative-total-yn_Mi-novio-viene-del-lago.wav,./stim/wavs/castilian_mismatch_interrogative-total-yn_Mi-novio-viene-del-lago.wav,./stim/wavs/chilean_mismatch_interrogative-total-yn_Mi-novio-viene-del-lago.wav,./stim/wavs/cuban_mismatch_interrogative-total-yn_Mi-novio-viene-del-lago.wav,./stim/wavs/mexican_mismatch_interrogative-total-yn_Mi-novio-viene-del-lago.wav,./stim/wavs/peruvian_mismatch_interrogative-total-yn_Mi-novio-viene-del-lago.wav,./stim/wavs/puertorican_mismatch_interrogative-total-yn_Mi-novio-viene-del-lago.wav
,,,,,,,991384,and,001,andaluz,Sí,2022-11-03_15h51.03.654,empathy_intonation_perc_sp_and,2022.2.4,Win32,60.39012018,IwAR0J8hd292xOABFIwtOtOUexJiOs39cW0udJ56hUjlO-4chJVYIQ1JEB0ms,,,,,,,,,,0,0,1,1.5218,0,29,29,36,1,37,./stim/wavs/andalusian_mismatch_declarative-broad-focus_La-nina-lava-el-plato.wav,./stim/wavs/argentine_mismatch_declarative-broad-focus_La-nina-lava-el-plato.wav,./stim/wavs/castilian_mismatch_declarative-broad-focus_La-nina-lava-el-plato.wav,./stim/wavs/chilean_mismatch_declarative-broad-focus_La-nina-lava-el-plato.wav,./stim/wavs/cuban_mismatch_declarative-broad-focus_La-nina-lava-el-plato.wav,./stim/wavs/mexican_mismatch_declarative-broad-focus_La-nina-lava-el-plato.wav,./stim/wavs/peruvian_mismatch_declarative-broad-focus_La-nina-lava-el-plato.wav,./stim/wavs/puertorican_mismatch_declarative-broad-focus_La-nina-lava-el-plato.wav
,,,,,,,991384,and,001,andaluz,Sí,2022-11-03_15h51.03.654,empathy_intonation_perc_sp_and,2022.2.4,Win32,60.39012018,IwAR0J8hd292xOABFIwtOtOUexJiOs39cW0udJ56hUjlO-4chJVYIQ1JEB0ms,,,,,,,,,,1,1,1,1.3381,0,30,30,20,1,21,./stim/wavs/andalusian_match_interrogative-partial-wh_Por-que-abre-el-regalo.wav,./stim/wavs/argentine_match_interrogative-partial-wh_Por-que-abre-el-regalo.wav,./stim/wavs/castilian_match_interrogative-partial-wh_Por-que-abre-el-regalo.wav,./stim/wavs/chilean_match_interrogative-partial-wh_Por-que-abre-el-regalo.wav,./stim/wavs/cuban_match_interrogative-partial-wh_Por-que-abre-el-regalo.wav,./stim/wavs/mexican_match_interrogative-partial-wh_Por-que-abre-el-regalo.wav,./stim/wavs/peruvian_match_interrogative-partial-wh_Por-que-abre-el-regalo.wav,./stim/wavs/puertorican_match_interrogative-partial-wh_Por-que-abre-el-regalo.wav
,,,,,,,991384,and,001,andaluz,Sí,2022-11-03_15h51.03.654,empathy_intonation_perc_sp_and,2022.2.4,Win32,60.39012018,IwAR0J8hd292xOABFIwtOtOUexJiOs39cW0udJ56hUjlO-4chJVYIQ1JEB0ms,,,,,,,,,,1,1,1,1.6012,0,31,31,27,1,28,./stim/wavs/andalusian_match_interrogative-total-yn_Emilio-ama-la-marcha.wav,./stim/wavs/argentine_match_interrogative-total-yn_Emilio-ama-la-marcha.wav,./stim/wavs/castilian_match_interrogative-total-yn_Emilio-ama-la-marcha.wav,./stim/wavs/chilean_match_interrogative-total-yn_Emilio-ama-la-marcha.wav,./stim/wavs/cuban_match_interrogative-total-yn_Emilio-ama-la-marcha.wav,./stim/wavs/mexican_match_interrogative-total-yn_Emilio-ama-la-marcha.wav,./stim/wavs/peruvian_match_interrogative-total-yn_Emilio-ama-la-marcha.wav,./stim/wavs/puertorican_match_interrogative-total-yn_Emilio-ama-la-marcha.wav
,,,,,,,991384,and,001,andaluz,Sí,2022-11-03_15h51.03.654,empathy_intonation_perc_sp_and,2022.2.4,Win32,60.39012018,IwAR0J8hd292xOABFIwtOtOUexJiOs39cW0udJ56hUjlO-4chJVYIQ1JEB0ms,,,,,,,,,,0,0,1,1.4154,0,32,32,41,1,42,./stim/wavs/andalusian_mismatch_declarative-narrow-focus_El-hombre-mira-la-luna.wav,./stim/wavs/argentine_mismatch_declarative-narrow-focus_El-hombre-mira-la-luna.wav,./stim/wavs/castilian_mismatch_declarative-narrow-focus_El-hombre-mira-la-luna.wav,./stim/wavs/chilean_mismatch_declarative-narrow-focus_El-hombre-mira-la-luna.wav,./stim/wavs/cuban_mismatch_declarative-narrow-focus_El-hombre-mira-la-luna.wav,./stim/wavs/mexican_mismatch_declarative-narrow-focus_El-hombre-mira-la-luna.wav,./stim/wavs/peruvian_mismatch_declarative-narrow-focus_El-hombre-mira-la-luna.wav,./stim/wavs/puertorican_mismatch_declarative-narrow-focus_El-hombre-mira-la-luna.wav
,,,,,,,991384,and,001,andaluz,Sí,2022-11-03_15h51.03.654,empathy_intonation_perc_sp_and,2022.2.4,Win32,60.39012018,IwAR0J8hd292xOABFIwtOtOUexJiOs39cW0udJ56hUjlO-4chJVYIQ1JEB0ms,,,,,,,,,,0,0,1,2.3153,0,33,33,39,1,40,./stim/wavs/andalusian_mismatch_declarative-broad-focus_Mi-tia-odia-la-lluvia.wav,./stim/wavs/argentine_mismatch_declarative-broad-focus_Mi-tia-odia-la-lluvia.wav,./stim/wavs/castilian_mismatch_declarative-broad-focus_Mi-tia-odia-la-lluvia.wav,./stim/wavs/chilean_mismatch_declarative-broad-focus_Mi-tia-odia-la-lluvia.wav,./stim/wavs/cuban_mismatch_declarative-broad-focus_Mi-tia-odia-la-lluvia.wav,./stim/wavs/mexican_mismatch_declarative-broad-focus_Mi-tia-odia-la-lluvia.wav,./stim/wavs/peruvian_mismatch_declarative-broad-focus_Mi-tia-odia-la-lluvia.wav,./stim/wavs/puertorican_mismatch_declarative-broad-focus_Mi-tia-odia-la-lluvia.wav
,,,,,,,991384,and,001,andaluz,Sí,2022-11-03_15h51.03.654,empathy_intonation_perc_sp_and,2022.2.4,Win32,60.39012018,IwAR0J8hd292xOABFIwtOtOUexJiOs39cW0udJ56hUjlO-4chJVYIQ1JEB0ms,,,,,,,,,,1,1,1,1.5059,0,34,34,59,1,60,./stim/wavs/andalusian_mismatch_interrogative-total-yn_La-maestra-vive-en-Paris.wav,./stim/wavs/argentine_mismatch_interrogative-total-yn_La-maestra-vive-en-Paris.wav,./stim/wavs/castilian_mismatch_interrogative-total-yn_La-maestra-vive-en-Paris.wav,./stim/wavs/chilean_mismatch_interrogative-total-yn_La-maestra-vive-en-Paris.wav,./stim/wavs/cuban_mismatch_interrogative-total-yn_La-maestra-vive-en-Paris.wav,./stim/wavs/mexican_mismatch_interrogative-total-yn_La-maestra-vive-en-Paris.wav,./stim/wavs/peruvian_mismatch_interrogative-total-yn_La-maestra-vive-en-Paris.wav,./stim/wavs/puertorican_mismatch_interrogative-total-yn_La-maestra-vive-en-Paris.wav
,,,,,,,991384,and,001,andaluz,Sí,2022-11-03_15h51.03.654,empathy_intonation_perc_sp_and,2022.2.4,Win32,60.39012018,IwAR0J8hd292xOABFIwtOtOUexJiOs39cW0udJ56hUjlO-4chJVYIQ1JEB0ms,,,,,,,,,,1,1,1,1.3234,0,35,35,51,1,52,./stim/wavs/andalusian_mismatch_interrogative-partial-wh_Por-que-desayuna-muy-bien.wav,./stim/wavs/argentine_mismatch_interrogative-partial-wh_Por-que-desayuna-muy-bien.wav,./stim/wavs/castilian_mismatch_interrogative-partial-wh_Por-que-desayuna-muy-bien.wav,./stim/wavs/chilean_mismatch_interrogative-partial-wh_Por-que-desayuna-muy-bien.wav,./stim/wavs/cuban_mismatch_interrogative-partial-wh_Por-que-desayuna-muy-bien.wav,./stim/wavs/mexican_mismatch_interrogative-partial-wh_Por-que-desayuna-muy-bien.wav,./stim/wavs/peruvian_mismatch_interrogative-partial-wh_Por-que-desayuna-muy-bien.wav,./stim/wavs/puertorican_mismatch_interrogative-partial-wh_Por-que-desayuna-muy-bien.wav
,,,,,,,991384,and,001,andaluz,Sí,2022-11-03_15h51.03.654,empathy_intonation_perc_sp_and,2022.2.4,Win32,60.39012018,IwAR0J8hd292xOABFIwtOtOUexJiOs39cW0udJ56hUjlO-4chJVYIQ1JEB0ms,,,,,,,,,,1,1,1,1.9231,0,36,36,17,1,18,./stim/wavs/andalusian_match_interrogative-partial-wh_Cuando-leia-el-libro.wav,./stim/wavs/argentine_match_interrogative-partial-wh_Cuando-leia-el-libro.wav,./stim/wavs/castilian_match_interrogative-partial-wh_Cuando-leia-el-libro.wav,./stim/wavs/chilean_match_interrogative-partial-wh_Cuando-leia-el-libro.wav,./stim/wavs/cuban_match_interrogative-partial-wh_Cuando-leia-el-libro.wav,./stim/wavs/mexican_match_interrogative-partial-wh_Cuando-leia-el-libro.wav,./stim/wavs/peruvian_match_interrogative-partial-wh_Cuando-leia-el-libro.wav,./stim/wavs/puertorican_match_interrogative-partial-wh_Cuando-leia-el-libro.wav
,,,,,,,991384,and,001,andaluz,Sí,2022-11-03_15h51.03.654,empathy_intonation_perc_sp_and,2022.2.4,Win32,60.39012018,IwAR0J8hd292xOABFIwtOtOUexJiOs39cW0udJ56hUjlO-4chJVYIQ1JEB0ms,,,,,,,,,,0,0,1,1.9882,0,37,37,1,1,2,./stim/wavs/andalusian_match_declarative-broad-focus_Daniel-iba-a-Bolivia.wav,./stim/wavs/argentine_match_declarative-broad-focus_Daniel-iba-a-Bolivia.wav,./stim/wavs/castilian_match_declarative-broad-focus_Daniel-iba-a-Bolivia.wav,./stim/wavs/chilean_match_declarative-broad-focus_Daniel-iba-a-Bolivia.wav,./stim/wavs/cuban_match_declarative-broad-focus_Daniel-iba-a-Bolivia.wav,./stim/wavs/mexican_match_declarative-broad-focus_Daniel-iba-a-Bolivia.wav,./stim/wavs/peruvian_match_declarative-broad-focus_Daniel-iba-a-Bolivia.wav,./stim/wavs/puertorican_match_declarative-broad-focus_Daniel-iba-a-Bolivia.wav
,,,,,,,991384,and,001,andaluz,Sí,2022-11-03_15h51.03.654,empathy_intonation_perc_sp_and,2022.2.4,Win32,60.39012018,IwAR0J8hd292xOABFIwtOtOUexJiOs39cW0udJ56hUjlO-4chJVYIQ1JEB0ms,,,,,,,,,,0,0,1,1.5821,0,38,38,7,1,8,./stim/wavs/andalusian_match_declarative-broad-focus_Marta-abre-el-regalo.wav,./stim/wavs/argentine_match_declarative-broad-focus_Marta-abre-el-regalo.wav,./stim/wavs/castilian_match_declarative-broad-focus_Marta-abre-el-regalo.wav,./stim/wavs/chilean_match_declarative-broad-focus_Marta-abre-el-regalo.wav,./stim/wavs/cuban_match_declarative-broad-focus_Marta-abre-el-regalo.wav,./stim/wavs/mexican_match_declarative-broad-focus_Marta-abre-el-regalo.wav,./stim/wavs/peruvian_match_declarative-broad-focus_Marta-abre-el-regalo.wav,./stim/wavs/puertorican_match_declarative-broad-focus_Marta-abre-el-regalo.wav
,,,,,,,991384,and,001,andaluz,Sí,2022-11-03_15h51.03.654,empathy_intonation_perc_sp_and,2022.2.4,Win32,60.39012018,IwAR0J8hd292xOABFIwtOtOUexJiOs39cW0udJ56hUjlO-4chJVYIQ1JEB0ms,,,,,,,,,,1,1,1,1.7214,0,39,39,18,1,19,./stim/wavs/andalusian_match_interrogative-partial-wh_Cuando-lleva-el-abrigo.wav,./stim/wavs/argentine_match_interrogative-partial-wh_Cuando-lleva-el-abrigo.wav,./stim/wavs/castilian_match_interrogative-partial-wh_Cuando-lleva-el-abrigo.wav,./stim/wavs/chilean_match_interrogative-partial-wh_Cuando-lleva-el-abrigo.wav,./stim/wavs/cuban_match_interrogative-partial-wh_Cuando-lleva-el-abrigo.wav,./stim/wavs/mexican_match_interrogative-partial-wh_Cuando-lleva-el-abrigo.wav,./stim/wavs/peruvian_match_interrogative-partial-wh_Cuando-lleva-el-abrigo.wav,./stim/wavs/puertorican_match_interrogative-partial-wh_Cuando-lleva-el-abrigo.wav
,,,,,,,991384,and,001,andaluz,Sí,2022-11-03_15h51.03.654,empathy_intonation_perc_sp_and,2022.2.4,Win32,60.39012018,IwAR0J8hd292xOABFIwtOtOUexJiOs39cW0udJ56hUjlO-4chJVYIQ1JEB0ms,,,,,,,,,,1,1,1,1.6501,0,40,40,22,1,23,./stim/wavs/andalusian_match_interrogative-partial-wh_Por-que-hablaba-del-agua.wav,./stim/wavs/argentine_match_interrogative-partial-wh_Por-que-hablaba-del-agua.wav,./stim/wavs/castilian_match_interrogative-partial-wh_Por-que-hablaba-del-agua.wav,./stim/wavs/chilean_match_interrogative-partial-wh_Por-que-hablaba-del-agua.wav,./stim/wavs/cuban_match_interrogative-partial-wh_Por-que-hablaba-del-agua.wav,./stim/wavs/mexican_match_interrogative-partial-wh_Por-que-hablaba-del-agua.wav,./stim/wavs/peruvian_match_interrogative-partial-wh_Por-que-hablaba-del-agua.wav,./stim/wavs/puertorican_match_interrogative-partial-wh_Por-que-hablaba-del-agua.wav
,,,,,,,991384,and,001,andaluz,Sí,2022-11-03_15h51.03.654,empathy_intonation_perc_sp_and,2022.2.4,Win32,60.39012018,IwAR0J8hd292xOABFIwtOtOUexJiOs39cW0udJ56hUjlO-4chJVYIQ1JEB0ms,,,,,,,,,,1,1,1,1.2698,0,41,41,19,1,20,./stim/wavs/andalusian_match_interrogative-partial-wh_Cuando-vendia-el-carro.wav,./stim/wavs/argentine_match_interrogative-partial-wh_Cuando-vendia-el-carro.wav,./stim/wavs/castilian_match_interrogative-partial-wh_Cuando-vendia-el-carro.wav,./stim/wavs/chilean_match_interrogative-partial-wh_Cuando-vendia-el-carro.wav,./stim/wavs/cuban_match_interrogative-partial-wh_Cuando-vendia-el-carro.wav,./stim/wavs/mexican_match_interrogative-partial-wh_Cuando-vendia-el-carro.wav,./stim/wavs/peruvian_match_interrogative-partial-wh_Cuando-vendia-el-carro.wav,./stim/wavs/puertorican_match_interrogative-partial-wh_Cuando-vendia-el-carro.wav
,,,,,,,991384,and,001,andaluz,Sí,2022-11-03_15h51.03.654,empathy_intonation_perc_sp_and,2022.2.4,Win32,60.39012018,IwAR0J8hd292xOABFIwtOtOUexJiOs39cW0udJ56hUjlO-4chJVYIQ1JEB0ms,,,,,,,,,,0,0,1,1.3208,0,42,42,12,1,13,./stim/wavs/andalusian_match_declarative-narrow-focus_Manuela-vende-el-carro.wav,./stim/wavs/argentine_match_declarative-narrow-focus_Manuela-vende-el-carro.wav,./stim/wavs/castilian_match_declarative-narrow-focus_Manuela-vende-el-carro.wav,./stim/wavs/chilean_match_declarative-narrow-focus_Manuela-vende-el-carro.wav,./stim/wavs/cuban_match_declarative-narrow-focus_Manuela-vende-el-carro.wav,./stim/wavs/mexican_match_declarative-narrow-focus_Manuela-vende-el-carro.wav,./stim/wavs/peruvian_match_declarative-narrow-focus_Manuela-vende-el-carro.wav,./stim/wavs/puertorican_match_declarative-narrow-focus_Manuela-vende-el-carro.wav
,,,,,,,991384,and,001,andaluz,Sí,2022-11-03_15h51.03.654,empathy_intonation_perc_sp_and,2022.2.4,Win32,60.39012018,IwAR0J8hd292xOABFIwtOtOUexJiOs39cW0udJ56hUjlO-4chJVYIQ1JEB0ms,,,,,,,,,,0,0,1,1.3711,0,43,43,34,1,35,./stim/wavs/andalusian_mismatch_declarative-broad-focus_El-nino-oye-el-rio.wav,./stim/wavs/argentine_mismatch_declarative-broad-focus_El-nino-oye-el-rio.wav,./stim/wavs/castilian_mismatch_declarative-broad-focus_El-nino-oye-el-rio.wav,./stim/wavs/chilean_mismatch_declarative-broad-focus_El-nino-oye-el-rio.wav,./stim/wavs/cuban_mismatch_declarative-broad-focus_El-nino-oye-el-rio.wav,./stim/wavs/mexican_mismatch_declarative-broad-focus_El-nino-oye-el-rio.wav,./stim/wavs/peruvian_mismatch_declarative-broad-focus_El-nino-oye-el-rio.wav,./stim/wavs/puertorican_mismatch_declarative-broad-focus_El-nino-oye-el-rio.wav
,,,,,,,991384,and,001,andaluz,Sí,2022-11-03_15h51.03.654,empathy_intonation_perc_sp_and,2022.2.4,Win32,60.39012018,IwAR0J8hd292xOABFIwtOtOUexJiOs39cW0udJ56hUjlO-4chJVYIQ1JEB0ms,,,,,,,,,,1,1,1,1.2227,0,44,44,61,1,62,./stim/wavs/andalusian_mismatch_interrogative-total-yn_Mi-madre-come-la-fruta.wav,./stim/wavs/argentine_mismatch_interrogative-total-yn_Mi-madre-come-la-fruta.wav,./stim/wavs/castilian_mismatch_interrogative-total-yn_Mi-madre-come-la-fruta.wav,./stim/wavs/chilean_mismatch_interrogative-total-yn_Mi-madre-come-la-fruta.wav,./stim/wavs/cuban_mismatch_interrogative-total-yn_Mi-madre-come-la-fruta.wav,./stim/wavs/mexican_mismatch_interrogative-total-yn_Mi-madre-come-la-fruta.wav,./stim/wavs/peruvian_mismatch_interrogative-total-yn_Mi-madre-come-la-fruta.wav,./stim/wavs/puertorican_mismatch_interrogative-total-yn_Mi-madre-come-la-fruta.wav
,,,,,,,991384,and,001,andaluz,Sí,2022-11-03_15h51.03.654,empathy_intonation_perc_sp_and,2022.2.4,Win32,60.39012018,IwAR0J8hd292xOABFIwtOtOUexJiOs39cW0udJ56hUjlO-4chJVYIQ1JEB0ms,,,,,,,,,,1,1,1,1.5848,0,45,45,60,1,61,./stim/wavs/andalusian_mismatch_interrogative-total-yn_La-nina-lava-el-plato.wav,./stim/wavs/argentine_mismatch_interrogative-total-yn_La-nina-lava-el-plato.wav,./stim/wavs/castilian_mismatch_interrogative-total-yn_La-nina-lava-el-plato.wav,./stim/wavs/chilean_mismatch_interrogative-total-yn_La-nina-lava-el-plato.wav,./stim/wavs/cuban_mismatch_interrogative-total-yn_La-nina-lava-el-plato.wav,./stim/wavs/mexican_mismatch_interrogative-total-yn_La-nina-lava-el-plato.wav,./stim/wavs/peruvian_mismatch_interrogative-total-yn_La-nina-lava-el-plato.wav,./stim/wavs/puertorican_mismatch_interrogative-total-yn_La-nina-lava-el-plato.wav
,,,,,,,991384,and,001,andaluz,Sí,2022-11-03_15h51.03.654,empathy_intonation_perc_sp_and,2022.2.4,Win32,60.39012018,IwAR0J8hd292xOABFIwtOtOUexJiOs39cW0udJ56hUjlO-4chJVYIQ1JEB0ms,,,,,,,,,,0,0,1,1.4641,0,46,46,46,1,47,./stim/wavs/andalusian_mismatch_declarative-narrow-focus_Mi-novio-viene-del-lago.wav,./stim/wavs/argentine_mismatch_declarative-narrow-focus_Mi-novio-viene-del-lago.wav,./stim/wavs/castilian_mismatch_declarative-narrow-focus_Mi-novio-viene-del-lago.wav,./stim/wavs/chilean_mismatch_declarative-narrow-focus_Mi-novio-viene-del-lago.wav,./stim/wavs/cuban_mismatch_declarative-narrow-focus_Mi-novio-viene-del-lago.wav,./stim/wavs/mexican_mismatch_declarative-narrow-focus_Mi-novio-viene-del-lago.wav,./stim/wavs/peruvian_mismatch_declarative-narrow-focus_Mi-novio-viene-del-lago.wav,./stim/wavs/puertorican_mismatch_declarative-narrow-focus_Mi-novio-viene-del-lago.wav
,,,,,,,991384,and,001,andaluz,Sí,2022-11-03_15h51.03.654,empathy_intonation_perc_sp_and,2022.2.4,Win32,60.39012018,IwAR0J8hd292xOABFIwtOtOUexJiOs39cW0udJ56hUjlO-4chJVYIQ1JEB0ms,,,,,,,,,,0,0,1,1.4503,0,47,47,38,1,39,./stim/wavs/andalusian_mismatch_declarative-broad-focus_Mi-novio-viene-del-lago.wav,./stim/wavs/argentine_mismatch_declarative-broad-focus_Mi-novio-viene-del-lago.wav,./stim/wavs/castilian_mismatch_declarative-broad-focus_Mi-novio-viene-del-lago.wav,./stim/wavs/chilean_mismatch_declarative-broad-focus_Mi-novio-viene-del-lago.wav,./stim/wavs/cuban_mismatch_declarative-broad-focus_Mi-novio-viene-del-lago.wav,./stim/wavs/mexican_mismatch_declarative-broad-focus_Mi-novio-viene-del-lago.wav,./stim/wavs/peruvian_mismatch_declarative-broad-focus_Mi-novio-viene-del-lago.wav,./stim/wavs/puertorican_mismatch_declarative-broad-focus_Mi-novio-viene-del-lago.wav
,,,,,,,991384,and,001,andaluz,Sí,2022-11-03_15h51.03.654,empathy_intonation_perc_sp_and,2022.2.4,Win32,60.39012018,IwAR0J8hd292xOABFIwtOtOUexJiOs39cW0udJ56hUjlO-4chJVYIQ1JEB0ms,,,,,,,,,,0,0,1,1.7658,0,48,48,15,1,16,./stim/wavs/andalusian_match_declarative-narrow-focus_Marta-abre-el-regalo.wav,./stim/wavs/argentine_match_declarative-narrow-focus_Marta-abre-el-regalo.wav,./stim/wavs/castilian_match_declarative-narrow-focus_Marta-abre-el-regalo.wav,./stim/wavs/chilean_match_declarative-narrow-focus_Marta-abre-el-regalo.wav,./stim/wavs/cuban_match_declarative-narrow-focus_Marta-abre-el-regalo.wav,./stim/wavs/mexican_match_declarative-narrow-focus_Marta-abre-el-regalo.wav,./stim/wavs/peruvian_match_declarative-narrow-focus_Marta-abre-el-regalo.wav,./stim/wavs/puertorican_match_declarative-narrow-focus_Marta-abre-el-regalo.wav
,,,,,,,991384,and,001,andaluz,Sí,2022-11-03_15h51.03.654,empathy_intonation_perc_sp_and,2022.2.4,Win32,60.39012018,IwAR0J8hd292xOABFIwtOtOUexJiOs39cW0udJ56hUjlO-4chJVYIQ1JEB0ms,,,,,,,,,,1,1,1,1.2577,0,49,49,56,1,57,./stim/wavs/andalusian_mismatch_interrogative-total-yn_El-bebe-comia-muy-bien.wav,./stim/wavs/argentine_mismatch_interrogative-total-yn_El-bebe-comia-muy-bien.wav,./stim/wavs/castilian_mismatch_interrogative-total-yn_El-bebe-comia-muy-bien.wav,./stim/wavs/chilean_mismatch_interrogative-total-yn_El-bebe-comia-muy-bien.wav,./stim/wavs/cuban_mismatch_interrogative-total-yn_El-bebe-comia-muy-bien.wav,./stim/wavs/mexican_mismatch_interrogative-total-yn_El-bebe-comia-muy-bien.wav,./stim/wavs/peruvian_mismatch_interrogative-total-yn_El-bebe-comia-muy-bien.wav,./stim/wavs/puertorican_mismatch_interrogative-total-yn_El-bebe-comia-muy-bien.wav
,,,,,,,991384,and,001,andaluz,Sí,2022-11-03_15h51.03.654,empathy_intonation_perc_sp_and,2022.2.4,Win32,60.39012018,IwAR0J8hd292xOABFIwtOtOUexJiOs39cW0udJ56hUjlO-4chJVYIQ1JEB0ms,,,,,,,,,,1,1,1,1.1025,0,50,50,49,1,50,./stim/wavs/andalusian_mismatch_interrogative-partial-wh_Cuando-lavaba-el-plato.wav,./stim/wavs/argentine_mismatch_interrogative-partial-wh_Cuando-lavaba-el-plato.wav,./stim/wavs/castilian_mismatch_interrogative-partial-wh_Cuando-lavaba-el-plato.wav,./stim/wavs/chilean_mismatch_interrogative-partial-wh_Cuando-lavaba-el-plato.wav,./stim/wavs/cuban_mismatch_interrogative-partial-wh_Cuando-lavaba-el-plato.wav,./stim/wavs/mexican_mismatch_interrogative-partial-wh_Cuando-lavaba-el-plato.wav,./stim/wavs/peruvian_mismatch_interrogative-partial-wh_Cuando-lavaba-el-plato.wav,./stim/wavs/puertorican_mismatch_interrogative-partial-wh_Cuando-lavaba-el-plato.wav
,,,,,,,991384,and,001,andaluz,Sí,2022-11-03_15h51.03.654,empathy_intonation_perc_sp_and,2022.2.4,Win32,60.39012018,IwAR0J8hd292xOABFIwtOtOUexJiOs39cW0udJ56hUjlO-4chJVYIQ1JEB0ms,,,,,,,,,,0,0,1,1.7007,0,51,51,14,1,15,./stim/wavs/andalusian_match_declarative-narrow-focus_Mariano-habla-del-tiempo.wav,./stim/wavs/argentine_match_declarative-narrow-focus_Mariano-habla-del-tiempo.wav,./stim/wavs/castilian_match_declarative-narrow-focus_Mariano-habla-del-tiempo.wav,./stim/wavs/chilean_match_declarative-narrow-focus_Mariano-habla-del-tiempo.wav,./stim/wavs/cuban_match_declarative-narrow-focus_Mariano-habla-del-tiempo.wav,./stim/wavs/mexican_match_declarative-narrow-focus_Mariano-habla-del-tiempo.wav,./stim/wavs/peruvian_match_declarative-narrow-focus_Mariano-habla-del-tiempo.wav,./stim/wavs/puertorican_match_declarative-narrow-focus_Mariano-habla-del-tiempo.wav
,,,,,,,991384,and,001,andaluz,Sí,2022-11-03_15h51.03.654,empathy_intonation_perc_sp_and,2022.2.4,Win32,60.39012018,IwAR0J8hd292xOABFIwtOtOUexJiOs39cW0udJ56hUjlO-4chJVYIQ1JEB0ms,,,,,,,,,,1,1,1,1.4206,0,52,52,16,1,17,./stim/wavs/andalusian_match_interrogative-partial-wh_Cuando-bebia-el-vino.wav,./stim/wavs/argentine_match_interrogative-partial-wh_Cuando-bebia-el-vino.wav,./stim/wavs/castilian_match_interrogative-partial-wh_Cuando-bebia-el-vino.wav,./stim/wavs/chilean_match_interrogative-partial-wh_Cuando-bebia-el-vino.wav,./stim/wavs/cuban_match_interrogative-partial-wh_Cuando-bebia-el-vino.wav,./stim/wavs/mexican_match_interrogative-partial-wh_Cuando-bebia-el-vino.wav,./stim/wavs/peruvian_match_interrogative-partial-wh_Cuando-bebia-el-vino.wav,./stim/wavs/puertorican_match_interrogative-partial-wh_Cuando-bebia-el-vino.wav
,,,,,,,991384,and,001,andaluz,Sí,2022-11-03_15h51.03.654,empathy_intonation_perc_sp_and,2022.2.4,Win32,60.39012018,IwAR0J8hd292xOABFIwtOtOUexJiOs39cW0udJ56hUjlO-4chJVYIQ1JEB0ms,,,,,,,,,,0,0,1,2.057,0,53,53,6,1,7,./stim/wavs/andalusian_match_declarative-broad-focus_Mariano-habla-del-tiempo.wav,./stim/wavs/argentine_match_declarative-broad-focus_Mariano-habla-del-tiempo.wav,./stim/wavs/castilian_match_declarative-broad-focus_Mariano-habla-del-tiempo.wav,./stim/wavs/chilean_match_declarative-broad-focus_Mariano-habla-del-tiempo.wav,./stim/wavs/cuban_match_declarative-broad-focus_Mariano-habla-del-tiempo.wav,./stim/wavs/mexican_match_declarative-broad-focus_Mariano-habla-del-tiempo.wav,./stim/wavs/peruvian_match_declarative-broad-focus_Mariano-habla-del-tiempo.wav,./stim/wavs/puertorican_match_declarative-broad-focus_Mariano-habla-del-tiempo.wav
,,,,,,,991384,and,001,andaluz,Sí,2022-11-03_15h51.03.654,empathy_intonation_perc_sp_and,2022.2.4,Win32,60.39012018,IwAR0J8hd292xOABFIwtOtOUexJiOs39cW0udJ56hUjlO-4chJVYIQ1JEB0ms,,,,,,,,,,1,1,1,1.5551,0,54,54,58,1,59,./stim/wavs/andalusian_mismatch_interrogative-total-yn_El-nino-oye-el-rio.wav,./stim/wavs/argentine_mismatch_interrogative-total-yn_El-nino-oye-el-rio.wav,./stim/wavs/castilian_mismatch_interrogative-total-yn_El-nino-oye-el-rio.wav,./stim/wavs/chilean_mismatch_interrogative-total-yn_El-nino-oye-el-rio.wav,./stim/wavs/cuban_mismatch_interrogative-total-yn_El-nino-oye-el-rio.wav,./stim/wavs/mexican_mismatch_interrogative-total-yn_El-nino-oye-el-rio.wav,./stim/wavs/peruvian_mismatch_interrogative-total-yn_El-nino-oye-el-rio.wav,./stim/wavs/puertorican_mismatch_interrogative-total-yn_El-nino-oye-el-rio.wav
,,,,,,,991384,and,001,andaluz,Sí,2022-11-03_15h51.03.654,empathy_intonation_perc_sp_and,2022.2.4,Win32,60.39012018,IwAR0J8hd292xOABFIwtOtOUexJiOs39cW0udJ56hUjlO-4chJVYIQ1JEB0ms,,,,,,,,,,0,0,1,1.4192,0,55,55,40,1,41,./stim/wavs/andalusian_mismatch_declarative-narrow-focus_El-bebe-comia-muy-bien.wav,./stim/wavs/argentine_mismatch_declarative-narrow-focus_El-bebe-comia-muy-bien.wav,./stim/wavs/castilian_mismatch_declarative-narrow-focus_El-bebe-comia-muy-bien.wav,./stim/wavs/chilean_mismatch_declarative-narrow-focus_El-bebe-comia-muy-bien.wav,./stim/wavs/cuban_mismatch_declarative-narrow-focus_El-bebe-comia-muy-bien.wav,./stim/wavs/mexican_mismatch_declarative-narrow-focus_El-bebe-comia-muy-bien.wav,./stim/wavs/peruvian_mismatch_declarative-narrow-focus_El-bebe-comia-muy-bien.wav,./stim/wavs/puertorican_mismatch_declarative-narrow-focus_El-bebe-comia-muy-bien.wav
,,,,,,,991384,and,001,andaluz,Sí,2022-11-03_15h51.03.654,empathy_intonation_perc_sp_and,2022.2.4,Win32,60.39012018,IwAR0J8hd292xOABFIwtOtOUexJiOs39cW0udJ56hUjlO-4chJVYIQ1JEB0ms,,,,,,,,,,0,0,1,1.6437,0,56,56,35,1,36,./stim/wavs/andalusian_mismatch_declarative-broad-focus_La-maestra-vive-en-Paris.wav,./stim/wavs/argentine_mismatch_declarative-broad-focus_La-maestra-vive-en-Paris.wav,./stim/wavs/castilian_mismatch_declarative-broad-focus_La-maestra-vive-en-Paris.wav,./stim/wavs/chilean_mismatch_declarative-broad-focus_La-maestra-vive-en-Paris.wav,./stim/wavs/cuban_mismatch_declarative-broad-focus_La-maestra-vive-en-Paris.wav,./stim/wavs/mexican_mismatch_declarative-broad-focus_La-maestra-vive-en-Paris.wav,./stim/wavs/peruvian_mismatch_declarative-broad-focus_La-maestra-vive-en-Paris.wav,./stim/wavs/puertorican_mismatch_declarative-broad-focus_La-maestra-vive-en-Paris.wav
,,,,,,,991384,and,001,andaluz,Sí,2022-11-03_15h51.03.654,empathy_intonation_perc_sp_and,2022.2.4,Win32,60.39012018,IwAR0J8hd292xOABFIwtOtOUexJiOs39cW0udJ56hUjlO-4chJVYIQ1JEB0ms,,,,,,,,,,0,0,1,1.3505,0,57,57,4,1,5,./stim/wavs/andalusian_match_declarative-broad-focus_Manuela-vende-el-carro.wav,./stim/wavs/argentine_match_declarative-broad-focus_Manuela-vende-el-carro.wav,./stim/wavs/castilian_match_declarative-broad-focus_Manuela-vende-el-carro.wav,./stim/wavs/chilean_match_declarative-broad-focus_Manuela-vende-el-carro.wav,./stim/wavs/cuban_match_declarative-broad-focus_Manuela-vende-el-carro.wav,./stim/wavs/mexican_match_declarative-broad-focus_Manuela-vende-el-carro.wav,./stim/wavs/peruvian_match_declarative-broad-focus_Manuela-vende-el-carro.wav,./stim/wavs/puertorican_match_declarative-broad-focus_Manuela-vende-el-carro.wav
,,,,,,,991384,and,001,andaluz,Sí,2022-11-03_15h51.03.654,empathy_intonation_perc_sp_and,2022.2.4,Win32,60.39012018,IwAR0J8hd292xOABFIwtOtOUexJiOs39cW0udJ56hUjlO-4chJVYIQ1JEB0ms,,,,,,,,,,1,1,1,1.3403,0,58,58,53,1,54,./stim/wavs/andalusian_mismatch_interrogative-partial-wh_Por-que-oia-el-rio.wav,./stim/wavs/argentine_mismatch_interrogative-partial-wh_Por-que-oia-el-rio.wav,./stim/wavs/castilian_mismatch_interrogative-partial-wh_Por-que-oia-el-rio.wav,./stim/wavs/chilean_mismatch_interrogative-partial-wh_Por-que-oia-el-rio.wav,./stim/wavs/cuban_mismatch_interrogative-partial-wh_Por-que-oia-el-rio.wav,./stim/wavs/mexican_mismatch_interrogative-partial-wh_Por-que-oia-el-rio.wav,./stim/wavs/peruvian_mismatch_interrogative-partial-wh_Por-que-oia-el-rio.wav,./stim/wavs/puertorican_mismatch_interrogative-partial-wh_Por-que-oia-el-rio.wav
,,,,,,,991384,and,001,andaluz,Sí,2022-11-03_15h51.03.654,empathy_intonation_perc_sp_and,2022.2.4,Win32,60.39012018,IwAR0J8hd292xOABFIwtOtOUexJiOs39cW0udJ56hUjlO-4chJVYIQ1JEB0ms,,,,,,,,,,1,1,1,1.4693,0,59,59,21,1,22,./stim/wavs/andalusian_match_interrogative-partial-wh_Por-que-ama-la-navidad.wav,./stim/wavs/argentine_match_interrogative-partial-wh_Por-que-ama-la-navidad.wav,./stim/wavs/castilian_match_interrogative-partial-wh_Por-que-ama-la-navidad.wav,./stim/wavs/chilean_match_interrogative-partial-wh_Por-que-ama-la-navidad.wav,./stim/wavs/cuban_match_interrogative-partial-wh_Por-que-ama-la-navidad.wav,./stim/wavs/mexican_match_interrogative-partial-wh_Por-que-ama-la-navidad.wav,./stim/wavs/peruvian_match_interrogative-partial-wh_Por-que-ama-la-navidad.wav,./stim/wavs/puertorican_match_interrogative-partial-wh_Por-que-ama-la-navidad.wav
,,,,,,,991384,and,001,andaluz,Sí,2022-11-03_15h51.03.654,empathy_intonation_perc_sp_and,2022.2.4,Win32,60.39012018,IwAR0J8hd292xOABFIwtOtOUexJiOs39cW0udJ56hUjlO-4chJVYIQ1JEB0ms,,,,,,,,,,0,0,1,1.7717,0,60,60,13,1,14,./stim/wavs/andalusian_match_declarative-narrow-focus_Maria-bebe-el-vino.wav,./stim/wavs/argentine_match_declarative-narrow-focus_Maria-bebe-el-vino.wav,./stim/wavs/castilian_match_declarative-narrow-focus_Maria-bebe-el-vino.wav,./stim/wavs/chilean_match_declarative-narrow-focus_Maria-bebe-el-vino.wav,./stim/wavs/cuban_match_declarative-narrow-focus_Maria-bebe-el-vino.wav,./stim/wavs/mexican_match_declarative-narrow-focus_Maria-bebe-el-vino.wav,./stim/wavs/peruvian_match_declarative-narrow-focus_Maria-bebe-el-vino.wav,./stim/wavs/puertorican_match_declarative-narrow-focus_Maria-bebe-el-vino.wav
,,,,,,,991384,and,001,andaluz,Sí,2022-11-03_15h51.03.654,empathy_intonation_perc_sp_and,2022.2.4,Win32,60.39012018,IwAR0J8hd292xOABFIwtOtOUexJiOs39cW0udJ56hUjlO-4chJVYIQ1JEB0ms,,,,,,,,,,1,1,1,1.2057,0,61,61,24,1,25,./stim/wavs/andalusian_match_interrogative-total-yn_Ana-lleva-el-abrigo.wav,./stim/wavs/argentine_match_interrogative-total-yn_Ana-lleva-el-abrigo.wav,./stim/wavs/castilian_match_interrogative-total-yn_Ana-lleva-el-abrigo.wav,./stim/wavs/chilean_match_interrogative-total-yn_Ana-lleva-el-abrigo.wav,./stim/wavs/cuban_match_interrogative-total-yn_Ana-lleva-el-abrigo.wav,./stim/wavs/mexican_match_interrogative-total-yn_Ana-lleva-el-abrigo.wav,./stim/wavs/peruvian_match_interrogative-total-yn_Ana-lleva-el-abrigo.wav,./stim/wavs/puertorican_match_interrogative-total-yn_Ana-lleva-el-abrigo.wav
,,,,,,,991384,and,001,andaluz,Sí,2022-11-03_15h51.03.654,empathy_intonation_perc_sp_and,2022.2.4,Win32,60.39012018,IwAR0J8hd292xOABFIwtOtOUexJiOs39cW0udJ56hUjlO-4chJVYIQ1JEB0ms,,,,,,,,,,0,0,1,1.5168,0,62,62,11,1,12,./stim/wavs/andalusian_match_declarative-narrow-focus_Emilio-ama-la-marcha.wav,./stim/wavs/argentine_match_declarative-narrow-focus_Emilio-ama-la-marcha.wav,./stim/wavs/castilian_match_declarative-narrow-focus_Emilio-ama-la-marcha.wav,./stim/wavs/chilean_match_declarative-narrow-focus_Emilio-ama-la-marcha.wav,./stim/wavs/cuban_match_declarative-narrow-focus_Emilio-ama-la-marcha.wav,./stim/wavs/mexican_match_declarative-narrow-focus_Emilio-ama-la-marcha.wav,./stim/wavs/peruvian_match_declarative-narrow-focus_Emilio-ama-la-marcha.wav,./stim/wavs/puertorican_match_declarative-narrow-focus_Emilio-ama-la-marcha.wav
,,,,,,,991384,and,001,andaluz,Sí,2022-11-03_15h51.03.654,empathy_intonation_perc_sp_and,2022.2.4,Win32,60.39012018,IwAR0J8hd292xOABFIwtOtOUexJiOs39cW0udJ56hUjlO-4chJVYIQ1JEB0ms,,,,,,,,,,1,1,1,1.7534,0,63,63,57,1,58,./stim/wavs/andalusian_mismatch_interrogative-total-yn_El-hombre-mira-la-luna.wav,./stim/wavs/argentine_mismatch_interrogative-total-yn_El-hombre-mira-la-luna.wav,./stim/wavs/castilian_mismatch_interrogative-total-yn_El-hombre-mira-la-luna.wav,./stim/wavs/chilean_mismatch_interrogative-total-yn_El-hombre-mira-la-luna.wav,./stim/wavs/cuban_mismatch_interrogative-total-yn_El-hombre-mira-la-luna.wav,./stim/wavs/mexican_mismatch_interrogative-total-yn_El-hombre-mira-la-luna.wav,./stim/wavs/peruvian_mismatch_interrogative-total-yn_El-hombre-mira-la-luna.wav,./stim/wavs/puertorican_mismatch_interrogative-total-yn_El-hombre-mira-la-luna.wav
